ACCELEROMETER X (m/s²);ACCELEROMETER Y (m/s²);ACCELEROMETER Z (m/s²);LINEAR ACCELERATION X (m/s²);LINEAR ACCELERATION Y (m/s²);LINEAR ACCELERATION Z (m/s²);GYROSCOPE X (rad/s);GYROSCOPE Y (rad/s);GYROSCOPE Z (rad/s);Time since start in ms ;YYYY-MO-DD HH-MI-SS_SSS
3.545;-1.6642;6.891;-0.8329;-1.5699;-0.4815;-1.236;-3.1367;0.0426;6;2022-04-09 18:34:33:923
5.4718;-4.9038;8.5472;-2.3322;-3.7456;-0.2938;-2.1584;-2.8953;0.3885;106;2022-04-09 18:34:34:023
7.6155;-5.0602;9.4259;-2.3534;-3.2655;3.3445;-2.2623;-1.9091;1.2344;206;2022-04-09 18:34:34:123
9.8375;-2.2454;9.6667;2.2775;0.8591;6.206;-1.3594;-0.4714;1.0227;305;2022-04-09 18:34:34:222
10.8174;-0.7675;8.2726;2.2049;2.4813;4.9761;-0.9212;0.3715;0.8147;409;2022-04-09 18:34:34:326
13.8278;1.5915;1.7554;3.7431;4.274;1.4734;0.1788;-0.7287;0.5966;506;2022-04-09 18:34:34:423
9.3688;-1.3908;-4.3367;4.594;5.6903;-2.2928;-1.0056;-1.6513;-0.5275;605;2022-04-09 18:34:34:522
9.3688;-1.3908;-4.3367;4.594;5.6903;-2.2928;-1.0056;-1.6513;-0.5275;705;2022-04-09 18:34:34:622
10.1393;-1.2936;-1.7282;4.594;5.6903;-2.2928;-1.0056;-1.6513;-0.5275;805;2022-04-09 18:34:34:722
11.4625;-9.5234;7.7306;-0.7129;1.2889;-4.3227;-0.6269;-2.234;-1.2736;906;2022-04-09 18:34:34:823
5.0877;-5.985;4.8278;3.6578;-4.757;8.9996;-3.2157;-0.8914;3.9126;1005;2022-04-09 18:34:34:922
3.7525;-7.8574;3.1989;0.7158;0.4707;10.7796;-1.6362;-0.0779;4.5087;1107;2022-04-09 18:34:35:024
2.141;-20.3922;-1.5491;5.3809;2.0498;5.5365;-0.4891;-0.4183;6.615;1206;2022-04-09 18:34:35:123
1.407;-11.6821;2.9288;3.6867;-11.4176;2.072;1.7296;-1.0285;-1.1011;1308;2022-04-09 18:34:35:225
-1.8523;-13.2727;-3.9054;-4.6236;-1.2103;0.715;-2.3683;0.5805;-1.6102;1406;2022-04-09 18:34:35:323
-4.1459;-13.0355;2.5678;-4.3909;-5.8111;1.9939;-2.9444;0.3118;-2.0951;1506;2022-04-09 18:34:35:423
3.7911;-8.8546;-3.1056;-8.498;-3.3353;7.5249;0.0325;0.8509;-1.7337;1605;2022-04-09 18:34:35:522
-3.5483;-4.8242;1.2266;-1.2058;-2.671;2.4081;-0.6128;-1.1091;-0.6869;1705;2022-04-09 18:34:35:622
-3.9102;-4.1204;0.7738;-7.6709;1.948;6.521;0.9326;-0.9523;0.8625;1805;2022-04-09 18:34:35:722
2.3647;-13.305;-2.6746;2.5827;-9.6937;-0.924;0.0426;-0.5398;0.2175;1905;2022-04-09 18:34:35:822
-2.377;-6.5067;-0.3227;-6.9978;-2.2614;5.5121;-0.1716;0.8799;0.5756;2005;2022-04-09 18:34:35:922
-2.6794;-10.0143;-0.0688;-3.9789;0.9519;5.302;-1.4579;-1.5549;0.9745;2105;2022-04-09 18:34:36:022
-1.6956;-7.151;1.6669;-2.8587;-2.2223;5.2868;0.6631;-2.7488;0.6078;2205;2022-04-09 18:34:36:122
-0.9727;-10.4387;0.9867;-0.4504;-0.9658;5.1674;1.9862;1.3428;0.6767;2305;2022-04-09 18:34:36:222
0.3646;-11.8801;-0.888;-0.6542;-1.1423;2.3178;2.5184;2.7163;0.5837;2406;2022-04-09 18:34:36:323
1.9083;-12.4789;-1.287;1.0467;-3.3977;-0.3615;-2.1152;0.4024;-1.9255;2506;2022-04-09 18:34:36:423
-4.9074;-15.251;1.2;-0.549;-4.4362;3.1969;-2.2774;-1.204;-3.0089;2605;2022-04-09 18:34:36:522
-2.3674;-5.5202;0.4708;-9.5402;-1.3552;5.8129;-0.555;-0.4804;-1.041;2705;2022-04-09 18:34:36:622
-4.8446;-3.8324;0.5704;-6.1462;1.6998;5.002;0.3236;0.1738;0.0153;2806;2022-04-09 18:34:36:723
3.5812;-12.2958;-2.0922;0.7928;-5.3564;-2.8715;0.2856;-0.2314;0.0574;2905;2022-04-09 18:34:36:822
-6.1119;-16.474;-1.1964;0.5461;-4.3708;1.8282;0.5104;1.5807;-0.1017;3007;2022-04-09 18:34:36:924
-2.2564;-4.7653;-0.2824;-9.0621;-8.7139;3.1999;-1.3457;0.877;0.3285;3131;2022-04-09 18:34:37:048
-0.9362;-5.1287;1.0158;0.0;0.0;0.0;0.6136;-2.5326;1.061;3205;2022-04-09 18:34:37:122
-1.0881;-10.4019;2.5241;1.7388;2.6098;-0.8303;2.074;-1.1514;0.9479;3306;2022-04-09 18:34:37:223
0.0589;-13.1773;-3.061;2.5899;-2.3831;-1.3916;2.7703;4.5235;0.3274;3406;2022-04-09 18:34:37:323
2.1042;-11.7849;-2.9961;2.4031;-3.8662;-4.6885;-0.7471;-0.7309;0.5446;3527;2022-04-09 18:34:37:444
-3.3054;-13.8739;-0.4831;0.0;0.0;0.0;-1.7319;0.5243;-3.2143;3606;2022-04-09 18:34:37:523
-6.8785;-11.8708;0.1854;-3.2528;-1.2955;0.0801;-0.9899;1.2099;-2.3253;3706;2022-04-09 18:34:37:623
-3.4828;-3.8252;0.8345;-1.5111;4.7043;0.6792;0.2028;0.4424;-0.5417;3806;2022-04-09 18:34:37:723
-0.3583;-8.0231;-4.9478;-0.6164;5.4247;0.4587;0.7416;-0.6241;1.2474;3906;2022-04-09 18:34:37:823
7.3753;-14.9414;-2.2938;2.2263;0.9606;-4.7362;0.1929;-1.158;0.3334;4005;2022-04-09 18:34:37:922
-2.5534;-8.7864;-1.8165;0.0;0.0;0.0;-0.6973;0.4006;0.0964;4106;2022-04-09 18:34:38:023
-2.0982;-9.1113;1.7402;0.2883;2.4346;2.7419;-0.1672;0.1558;0.4502;4206;2022-04-09 18:34:38:123
-2.5555;-6.6479;1.1303;1.2804;0.9273;1.7902;1.3324;0.0142;0.835;4306;2022-04-09 18:34:38:223
0.5186;-10.8206;0.7995;2.5674;-2.021;-2.9419;2.3476;-2.6799;1.7299;4406;2022-04-09 18:34:38:323
1.1509;-11.7763;-1.9286;4.7976;-2.3235;-1.3088;1.5506;3.4721;0.4352;4506;2022-04-09 18:34:38:423
2.0016;-11.5457;-1.6594;4.8178;-2.8821;-3.4461;-0.4821;-0.5974;0.2723;4608;2022-04-09 18:34:38:525
-4.4345;-15.0114;-0.7507;0.2446;-1.0892;0.0886;-1.5447;0.9167;-3.3477;4707;2022-04-09 18:34:38:624
-5.522;-10.8535;0.6362;-5.4459;-4.7877;0.608;-0.6127;0.9004;-1.8116;4805;2022-04-09 18:34:38:722
-4.0292;-5.2002;1.4883;0.0;0.0;0.0;0.3656;-0.246;-0.434;4906;2022-04-09 18:34:38:823
-3.2447;-6.4597;-1.2837;0.0;0.0;0.0;1.264;-0.6612;1.3048;5007;2022-04-09 18:34:38:924
-2.4266;-13.9714;-1.1773;8.704;-8.1085;-4.103;-0.2466;0.3854;-0.0988;5106;2022-04-09 18:34:39:023
-3.7528;-7.8622;0.2809;-2.313;-3.1458;0.7968;-0.2955;-0.0487;0.0185;5213;2022-04-09 18:34:39:130
-3.364;-8.4356;0.3063;-2.716;2.2272;2.4346;-1.062;0.4496;0.4326;5308;2022-04-09 18:34:39:225
-1.587;-6.7848;1.1638;-0.6304;0.208;1.7856;0.9929;-1.1846;1.217;5411;2022-04-09 18:34:39:328
1.0866;-10.255;1.5903;3.3117;-2.3906;-1.0421;3.0388;-0.1988;0.7888;5506;2022-04-09 18:34:39:423
0.6404;-11.3925;-1.1563;4.9239;-1.5557;-0.0347;1.5057;4.4267;0.2982;5605;2022-04-09 18:34:39:522
0.2073;-11.7144;-3.2504;3.9233;-2.3358;-2.2318;-0.0565;1.1011;-0.4652;5706;2022-04-09 18:34:39:623
-5.123;-15.1478;1.7064;-1.7231;-0.791;-1.5752;-2.1592;0.6779;-3.1782;5806;2022-04-09 18:34:39:723
-5.1763;-10.0424;-0.4128;-6.3293;-5.1075;3.1653;0.5043;2.201;-1.5114;5906;2022-04-09 18:34:39:823
-3.2109;-5.5181;0.1292;-3.1918;3.7392;-0.0706;0.4432;0.2344;0.2307;6006;2022-04-09 18:34:39:923
-3.524;-10.5879;0.0458;-2.8651;4.0652;0.9641;0.6267;0.022;1.5439;6105;2022-04-09 18:34:40:022
2.1858;-16.4085;-0.5886;5.6376;-2.9943;-2.012;0.2894;-1.0504;1.2435;6207;2022-04-09 18:34:40:124
-1.2924;-6.1651;-0.8189;3.3341;-6.3941;-1.2073;0.7545;0.1965;-1.0459;6306;2022-04-09 18:34:40:223
-6.2728;-11.7544;1.4566;-3.4966;1.1188;1.8415;-2.5946;0.7549;-0.3176;6405;2022-04-09 18:34:40:322
-4.9965;-7.9881;3.6251;-5.4237;-1.9978;3.1258;0.1078;1.3345;0.4881;6796;2022-04-09 18:34:40:713
-4.9965;-7.9881;3.6251;-5.4237;-1.9978;3.1258;0.1078;1.3345;0.4881;6797;2022-04-09 18:34:40:714
-4.9965;-7.9881;3.6251;-5.4237;-1.9978;3.1258;0.1078;1.3345;0.4881;6797;2022-04-09 18:34:40:714
-4.9965;-7.9881;3.6251;-5.4237;-1.9978;3.1258;0.1078;1.3345;0.4881;6797;2022-04-09 18:34:40:714
-4.9965;-7.9881;3.6251;-5.4237;-1.9978;3.1258;0.1078;1.3345;0.4881;6797;2022-04-09 18:34:40:714
-4.9965;-7.9881;3.6251;-5.4237;-1.9978;3.1258;0.1078;1.3345;0.4881;6797;2022-04-09 18:34:40:714
-4.9965;-7.9881;3.6251;-5.4237;-1.9978;3.1258;0.1078;1.3345;0.4881;6797;2022-04-09 18:34:40:714
-4.9965;-7.9881;3.6251;-5.4237;-1.9978;3.1258;0.1078;1.3345;0.4881;6797;2022-04-09 18:34:40:714
-4.9965;-7.9881;3.6251;-5.4237;-1.9978;3.1258;0.1078;1.3345;0.4881;6798;2022-04-09 18:34:40:715
-4.9965;-7.9881;3.6251;-5.4237;-1.9978;3.1258;0.1078;1.3345;0.4881;6798;2022-04-09 18:34:40:715
-4.9965;-7.9881;3.6251;-5.4237;-1.9978;3.1258;0.1078;1.3345;0.4881;6798;2022-04-09 18:34:40:715
-4.9965;-7.9881;3.6251;-5.4237;-1.9978;3.1258;0.1078;1.3345;0.4881;6798;2022-04-09 18:34:40:715
-4.9965;-7.9881;3.6251;-5.4237;-1.9978;3.1258;0.1078;1.3345;0.4881;6798;2022-04-09 18:34:40:715
-4.9965;-7.9881;3.6251;-5.4237;-1.9978;3.1258;0.1078;1.3345;0.4881;6798;2022-04-09 18:34:40:715
-4.9965;-7.9881;3.6251;-5.4237;-1.9978;3.1258;0.1078;1.3345;0.4881;6798;2022-04-09 18:34:40:715
-4.9965;-7.9881;3.6251;-5.4237;-1.9978;3.1258;0.1078;1.3345;0.4881;6799;2022-04-09 18:34:40:716
-4.9965;-7.9881;3.6251;-5.4237;-1.9978;3.1258;0.1078;1.3345;0.4881;6799;2022-04-09 18:34:40:716
-4.9965;-7.9881;3.6251;-5.4237;-1.9978;3.1258;0.1078;1.3345;0.4881;6799;2022-04-09 18:34:40:716
-4.9965;-7.9881;3.6251;-5.4237;-1.9978;3.1258;0.1078;1.3345;0.4881;6799;2022-04-09 18:34:40:716
-4.9965;-7.9881;3.6251;-5.4237;-1.9978;3.1258;0.1078;1.3345;0.4881;6799;2022-04-09 18:34:40:716
-4.9965;-7.9881;3.6251;-5.4237;-1.9978;3.1258;0.1078;1.3345;0.4881;6799;2022-04-09 18:34:40:716
-4.9965;-7.9881;3.6251;-5.4237;-1.9978;3.1258;0.1078;1.3345;0.4881;6799;2022-04-09 18:34:40:716
-4.9965;-7.9881;3.6251;-5.4237;-1.9978;3.1258;0.1078;1.3345;0.4881;6800;2022-04-09 18:34:40:717
-4.9965;-7.9881;3.6251;-5.4237;-1.9978;3.1258;0.1078;1.3345;0.4881;6800;2022-04-09 18:34:40:717
-3.3598;-9.3802;0.9159;0.0;0.0;0.0;-1.0562;-0.1942;-2.2378;6873;2022-04-09 18:34:40:790
-1.1949;-11.2612;0.9532;1.0201;-1.3022;-0.7029;2.1852;0.8589;0.6003;7217;2022-04-09 18:34:41:134
-1.1949;-11.2612;0.9532;1.0201;-1.3022;-0.7029;2.1852;0.8589;0.6003;7218;2022-04-09 18:34:41:135
-1.1949;-11.2612;0.9532;1.0201;-1.3022;-0.7029;2.1852;0.8589;0.6003;7219;2022-04-09 18:34:41:136
-1.1949;-11.2612;0.9532;1.0201;-1.3022;-0.7029;2.1852;0.8589;0.6003;7219;2022-04-09 18:34:41:136
-1.1949;-11.2612;0.9532;1.0201;-1.3022;-0.7029;2.1852;0.8589;0.6003;7219;2022-04-09 18:34:41:136
-1.1949;-11.2612;0.9532;1.0201;-1.3022;-0.7029;2.1852;0.8589;0.6003;7219;2022-04-09 18:34:41:136
-1.1949;-11.2612;0.9532;1.0201;-1.3022;-0.7029;2.1852;0.8589;0.6003;7220;2022-04-09 18:34:41:137
-1.1949;-11.2612;0.9532;1.0201;-1.3022;-0.7029;2.1852;0.8589;0.6003;7220;2022-04-09 18:34:41:137
-1.1949;-11.2612;0.9532;1.0201;-1.3022;-0.7029;2.1852;0.8589;0.6003;7220;2022-04-09 18:34:41:137
-1.1949;-11.2612;0.9532;1.0201;-1.3022;-0.7029;2.1852;0.8589;0.6003;7220;2022-04-09 18:34:41:137
-4.6181;-3.7322;-0.0751;0.0;0.0;0.0;0.4786;0.0052;-1.0986;7297;2022-04-09 18:34:41:214
-4.6181;-3.7322;-0.0751;0.0;0.0;0.0;0.4786;0.0052;-1.0986;7298;2022-04-09 18:34:41:215
-4.6181;-3.7322;-0.0751;0.0;0.0;0.0;0.4786;0.0052;-1.0986;7298;2022-04-09 18:34:41:215
-4.6181;-3.7322;-0.0751;0.0;0.0;0.0;0.4786;0.0052;-1.0986;7298;2022-04-09 18:34:41:215
-4.6181;-3.7322;-0.0751;0.0;0.0;0.0;0.4786;0.0052;-1.0986;7298;2022-04-09 18:34:41:215
-4.6181;-3.7322;-0.0751;0.83;1.2278;-2.1004;0.3734;0.0279;0.0626;7316;2022-04-09 18:34:41:233
8.4287;-15.3281;-3.3371;-0.3029;1.6915;-0.9918;0.4479;-0.8112;1.1589;7415;2022-04-09 18:34:41:332
-4.8718;-19.9834;-0.7035;4.217;-4.2575;-4.9028;0.4696;-0.5027;-0.0418;7516;2022-04-09 18:34:41:433
-2.0157;-3.5994;-0.1696;-2.231;-6.5454;-0.1396;-0.1022;0.8436;-0.2885;7615;2022-04-09 18:34:41:532
-2.8654;-6.4089;0.7352;-2.0551;-0.6486;2.1563;-0.0495;-0.6021;0.9741;7715;2022-04-09 18:34:41:632
-0.3314;-12.023;0.8788;0.0099;1.1589;1.1932;1.1959;-0.5924;1.4166;7815;2022-04-09 18:34:41:732
1.366;-10.4788;3.1196;2.1484;0.3852;-0.0397;1.5432;-1.2257;1.6073;7916;2022-04-09 18:34:41:833
-0.1472;-11.3623;-4.7402;5.5281;-2.6839;-0.2409;1.1942;4.6768;0.1147;8016;2022-04-09 18:34:41:933
1.9334;-9.702;-0.664;4.5248;-3.5409;-3.7251;-0.6988;0.1776;0.0632;8116;2022-04-09 18:34:42:033
-4.5963;-17.4673;2.0521;2.1099;-0.492;0.4557;-2.2611;-0.9147;-3.2715;8215;2022-04-09 18:34:42:132
-3.2067;-5.8403;-3.4687;-4.4497;-6.719;2.4984;-0.4232;1.4578;-2.0425;8315;2022-04-09 18:34:42:232
-4.4731;-4.1333;1.7779;-3.8657;3.7933;-0.7683;0.3468;-0.2451;-0.1713;8416;2022-04-09 18:34:42:333
10.8275;-18.8701;-0.3757;-3.4898;4.8406;2.6647;0.5763;-0.485;1.4822;8516;2022-04-09 18:34:42:433
-4.7186;-18.0096;-0.8151;8.5304;-4.9612;-0.3316;0.3867;0.6985;-0.1895;8617;2022-04-09 18:34:42:534
-3.0344;-9.0736;0.2432;-2.8042;-5.2337;-0.1821;-0.3328;-0.6828;0.3204;8717;2022-04-09 18:34:42:634
-1.794;-6.4591;1.1937;-0.7634;3.428;1.1673;-1.4379;-1.5696;0.7704;8818;2022-04-09 18:34:42:735
-1.6098;-9.2602;1.663;0.9549;2.8217;1.3748;1.2093;-2.2763;0.7197;8916;2022-04-09 18:34:42:833
-0.8306;-10.0457;-0.0117;2.7765;-0.6254;-0.322;2.1949;1.2735;0.3326;9016;2022-04-09 18:34:42:933
-1.3107;-10.9792;-3.3646;2.7163;-1.295;-1.2553;1.0748;2.7994;0.2749;9116;2022-04-09 18:34:43:033
2.7607;-10.9983;-1.0507;2.3847;-2.4106;-3.278;-0.888;-0.4788;0.5342;9216;2022-04-09 18:34:43:133
-3.2605;-15.0529;1.4509;3.7872;-2.0215;0.7774;-2.3206;-1.6585;-2.8336;9316;2022-04-09 18:34:43:233
-2.9061;-8.651;1.226;-1.6729;-4.4352;2.9244;-1.3597;-1.0731;-1.7612;9415;2022-04-09 18:34:43:332
-4.9005;-5.5017;0.2432;-2.7178;1.1575;3.4729;0.2011;-2.2071;-0.6867;9515;2022-04-09 18:34:43:432
2.6755;-11.6438;-3.8231;-3.0751;3.3067;2.6353;-0.2814;-3.9868;0.5595;9615;2022-04-09 18:34:43:532
-2.4215;-7.1462;3.8393;3.5992;-1.3343;0.1601;-0.881;-3.5432;-0.8686;9715;2022-04-09 18:34:43:632
-3.6724;-7.4779;-6.2363;-1.1846;0.941;5.5998;1.1269;-0.5928;-0.709;9815;2022-04-09 18:34:43:732
1.6271;-13.5434;1.0454;1.8049;4.3084;-2.9621;0.1489;-3.7401;1.6429;9916;2022-04-09 18:34:43:833
0.4732;-11.2534;-4.7904;4.1813;-0.519;0.7263;-0.0893;-0.0105;0.2019;10016;2022-04-09 18:34:43:933
0.9039;-12.1331;7.5404;4.8394;-2.2699;1.8468;-2.4642;-4.1451;0.454;10115;2022-04-09 18:34:44:032
0.1104;-9.2865;4.2174;4.6475;-2.3676;7.2239;-1.5911;-1.379;-0.3198;10216;2022-04-09 18:34:44:133
-2.9949;-11.962;-3.0703;3.6914;0.0167;5.8026;-0.8052;-1.3799;-0.8659;10316;2022-04-09 18:34:44:233
-2.6393;-11.7227;4.2676;-0.2731;-1.3337;-5.0171;-1.5144;-1.2286;-1.9132;10416;2022-04-09 18:34:44:333
-2.3892;-7.9161;-1.7892;-5.4221;-2.8421;0.873;-0.1041;0.7816;-1.2238;10516;2022-04-09 18:34:44:433
-1.9726;-5.7159;-2.5005;-2.7705;2.6762;-0.0216;0.2491;-0.7081;0.1054;10616;2022-04-09 18:34:44:533
6.4917;-12.1463;-5.4571;-2.0085;3.4527;-0.8893;0.6072;-0.2952;0.3974;10715;2022-04-09 18:34:44:632
-1.1809;-13.1306;-1.3528;2.697;-1.9102;-3.0962;-0.4284;-0.2118;-0.1967;10815;2022-04-09 18:34:44:732
-4.3947;-8.4239;-0.3996;2.697;-1.9102;-3.0962;-0.4284;-0.2118;-0.1967;11167;2022-04-09 18:34:45:084
-4.3947;-8.4239;-0.3996;2.697;-1.9102;-3.0962;-0.4284;-0.2118;-0.1967;11168;2022-04-09 18:34:45:085
-4.3947;-8.4239;-0.3996;2.697;-1.9102;-3.0962;-0.4284;-0.2118;-0.1967;11168;2022-04-09 18:34:45:085
-4.3947;-8.4239;-0.3996;2.697;-1.9102;-3.0962;-0.4284;-0.2118;-0.1967;11168;2022-04-09 18:34:45:085
-4.3947;-8.4239;-0.3996;2.697;-1.9102;-3.0962;-0.4284;-0.2118;-0.1967;11168;2022-04-09 18:34:45:085
-4.3947;-8.4239;-0.3996;2.697;-1.9102;-3.0962;-0.4284;-0.2118;-0.1967;11169;2022-04-09 18:34:45:086
-4.3947;-8.4239;-0.3996;2.697;-1.9102;-3.0962;-0.4284;-0.2118;-0.1967;11169;2022-04-09 18:34:45:086
-4.3947;-8.4239;-0.3996;2.697;-1.9102;-3.0962;-0.4284;-0.2118;-0.1967;11169;2022-04-09 18:34:45:086
-4.3947;-8.4239;-0.3996;2.697;-1.9102;-3.0962;-0.4284;-0.2118;-0.1967;11169;2022-04-09 18:34:45:086
-4.3947;-8.4239;-0.3996;2.697;-1.9102;-3.0962;-0.4284;-0.2118;-0.1967;11169;2022-04-09 18:34:45:086
-4.3947;-8.4239;-0.3996;2.697;-1.9102;-3.0962;-0.4284;-0.2118;-0.1967;11170;2022-04-09 18:34:45:087
-4.3947;-8.4239;-0.3996;2.697;-1.9102;-3.0962;-0.4284;-0.2118;-0.1967;11170;2022-04-09 18:34:45:087
-4.3947;-8.4239;-0.3996;2.697;-1.9102;-3.0962;-0.4284;-0.2118;-0.1967;11170;2022-04-09 18:34:45:087
-4.3947;-8.4239;-0.3996;2.697;-1.9102;-3.0962;-0.4284;-0.2118;-0.1967;11170;2022-04-09 18:34:45:087
-4.3947;-8.4239;-0.3996;2.697;-1.9102;-3.0962;-0.4284;-0.2118;-0.1967;11171;2022-04-09 18:34:45:088
-4.3947;-8.4239;-0.3996;2.697;-1.9102;-3.0962;-0.4284;-0.2118;-0.1967;11171;2022-04-09 18:34:45:088
-4.3947;-8.4239;-0.3996;2.697;-1.9102;-3.0962;-0.4284;-0.2118;-0.1967;11171;2022-04-09 18:34:45:088
-4.3947;-8.4239;-0.3996;2.697;-1.9102;-3.0962;-0.4284;-0.2118;-0.1967;11171;2022-04-09 18:34:45:088
-4.3947;-8.4239;-0.3996;2.697;-1.9102;-3.0962;-0.4284;-0.2118;-0.1967;11172;2022-04-09 18:34:45:089
-4.3947;-8.4239;-0.3996;2.697;-1.9102;-3.0962;-0.4284;-0.2118;-0.1967;11172;2022-04-09 18:34:45:089
-4.3947;-8.4239;-0.3996;2.697;-1.9102;-3.0962;-0.4284;-0.2118;-0.1967;11173;2022-04-09 18:34:45:090
-4.3947;-8.4239;-0.3996;2.697;-1.9102;-3.0962;-0.4284;-0.2118;-0.1967;11173;2022-04-09 18:34:45:090
-4.3947;-8.4239;-0.3996;2.697;-1.9102;-3.0962;-0.4284;-0.2118;-0.1967;11173;2022-04-09 18:34:45:090
-4.3947;-8.4239;-0.3996;2.697;-1.9102;-3.0962;-0.4284;-0.2118;-0.1967;11173;2022-04-09 18:34:45:090
-4.3947;-8.4239;-0.3996;2.697;-1.9102;-3.0962;-0.4284;-0.2118;-0.1967;11173;2022-04-09 18:34:45:090
-4.3947;-8.4239;-0.3996;2.697;-1.9102;-3.0962;-0.4284;-0.2118;-0.1967;11174;2022-04-09 18:34:45:091
-4.3947;-8.4239;-0.3996;2.697;-1.9102;-3.0962;-0.4284;-0.2118;-0.1967;11174;2022-04-09 18:34:45:091
-4.3947;-8.4239;-0.3996;2.697;-1.9102;-3.0962;-0.4284;-0.2118;-0.1967;11174;2022-04-09 18:34:45:091
-4.3947;-8.4239;-0.3996;2.697;-1.9102;-3.0962;-0.4284;-0.2118;-0.1967;11174;2022-04-09 18:34:45:091
-4.3947;-8.4239;-0.3996;2.697;-1.9102;-3.0962;-0.4284;-0.2118;-0.1967;11174;2022-04-09 18:34:45:091
-4.3947;-8.4239;-0.3996;2.697;-1.9102;-3.0962;-0.4284;-0.2118;-0.1967;11174;2022-04-09 18:34:45:091
-4.3947;-8.4239;-0.3996;2.697;-1.9102;-3.0962;-0.4284;-0.2118;-0.1967;11174;2022-04-09 18:34:45:091
-4.3947;-8.4239;-0.3996;2.697;-1.9102;-3.0962;-0.4284;-0.2118;-0.1967;11175;2022-04-09 18:34:45:092
-4.3947;-8.4239;-0.3996;2.697;-1.9102;-3.0962;-0.4284;-0.2118;-0.1967;11175;2022-04-09 18:34:45:092
-4.3947;-8.4239;-0.3996;2.697;-1.9102;-3.0962;-0.4284;-0.2118;-0.1967;11175;2022-04-09 18:34:45:092
-4.3947;-8.4239;-0.3996;2.697;-1.9102;-3.0962;-0.4284;-0.2118;-0.1967;11175;2022-04-09 18:34:45:092
-4.3947;-8.4239;-0.3996;2.697;-1.9102;-3.0962;-0.4284;-0.2118;-0.1967;11175;2022-04-09 18:34:45:092
-4.3947;-8.4239;-0.3996;2.697;-1.9102;-3.0962;-0.4284;-0.2118;-0.1967;11175;2022-04-09 18:34:45:092
-4.3947;-8.4239;-0.3996;2.697;-1.9102;-3.0962;-0.4284;-0.2118;-0.1967;11176;2022-04-09 18:34:45:093
-4.3947;-8.4239;-0.3996;2.697;-1.9102;-3.0962;-0.4284;-0.2118;-0.1967;11176;2022-04-09 18:34:45:093
-4.3947;-8.4239;-0.3996;2.697;-1.9102;-3.0962;-0.4284;-0.2118;-0.1967;11176;2022-04-09 18:34:45:093
-4.3947;-8.4239;-0.3996;2.697;-1.9102;-3.0962;-0.4284;-0.2118;-0.1967;11176;2022-04-09 18:34:45:093
-4.3947;-8.4239;-0.3996;2.697;-1.9102;-3.0962;-0.4284;-0.2118;-0.1967;11176;2022-04-09 18:34:45:093
-4.3947;-8.4239;-0.3996;2.697;-1.9102;-3.0962;-0.4284;-0.2118;-0.1967;11176;2022-04-09 18:34:45:093
-4.3875;-9.8845;0.4226;0.0;0.0;0.0;-1.0218;3.7889;-0.5965;11176;2022-04-09 18:34:45:093
-4.3875;-9.8845;0.4226;0.0;0.0;0.0;-1.0218;3.7889;-0.5965;11178;2022-04-09 18:34:45:095
-4.3875;-9.8845;0.4226;0.0;0.0;0.0;-1.0218;3.7889;-0.5965;11178;2022-04-09 18:34:45:095
-4.3875;-9.8845;0.4226;0.0;0.0;0.0;-1.0218;3.7889;-0.5965;11178;2022-04-09 18:34:45:095
-4.3875;-9.8845;0.4226;0.0;0.0;0.0;-1.0218;3.7889;-0.5965;11178;2022-04-09 18:34:45:095
-4.3875;-9.8845;0.4226;0.0;0.0;0.0;-1.0218;3.7889;-0.5965;11179;2022-04-09 18:34:45:096
-4.3875;-9.8845;0.4226;0.0;0.0;0.0;-1.0218;3.7889;-0.5965;11179;2022-04-09 18:34:45:096
-4.3875;-9.8845;0.4226;0.0;0.0;0.0;-1.0218;3.7889;-0.5965;11179;2022-04-09 18:34:45:096
-4.3875;-9.8845;0.4226;0.0;0.0;0.0;-1.0218;3.7889;-0.5965;11179;2022-04-09 18:34:45:096
-4.3875;-9.8845;0.4226;0.0;0.0;0.0;-1.0218;3.7889;-0.5965;11179;2022-04-09 18:34:45:096
-4.3875;-9.8845;0.4226;0.0;0.0;0.0;-1.0218;3.7889;-0.5965;11191;2022-04-09 18:34:45:108
-4.3875;-9.8845;0.4226;0.0;0.0;0.0;-1.0218;3.7889;-0.5965;11192;2022-04-09 18:34:45:109
-4.3875;-9.8845;0.4226;0.0;0.0;0.0;-1.0218;3.7889;-0.5965;11193;2022-04-09 18:34:45:110
-4.3875;-9.8845;0.4226;0.0;0.0;0.0;-1.0218;3.7889;-0.5965;11193;2022-04-09 18:34:45:110
-4.3875;-9.8845;0.4226;0.0;0.0;0.0;-1.0218;3.7889;-0.5965;11193;2022-04-09 18:34:45:110
0.941;-10.2682;1.3863;0.0;0.0;0.0;1.1369;0.2164;0.6643;11272;2022-04-09 18:34:45:189
-0.4534;-9.702;-0.8043;0.8981;-0.3069;-1.077;1.6707;2.5918;-0.3551;11369;2022-04-09 18:34:45:286
-1.7557;-10.5174;0.5856;-0.1661;0.0031;-2.2415;0.5006;0.846;0.017;11469;2022-04-09 18:34:45:386
-1.252;-12.411;1.8855;-0.7502;-0.5003;0.5066;-0.5288;-0.0318;0.3598;11568;2022-04-09 18:34:45:485
1.0992;-8.991;-4.7139;-0.5309;-1.6266;1.6877;-0.1495;-0.2689;-0.297;11669;2022-04-09 18:34:45:586
-4.0397;-12.8635;-0.4738;-1.8922;-0.0022;-1.7522;-1.6154;-1.5299;-2.233;11769;2022-04-09 18:34:45:686
-1.9726;-6.743;-1.3223;-5.6682;-2.5749;1.5036;-1.069;-0.3153;-1.4793;11870;2022-04-09 18:34:45:787
-5.2561;-5.2561;0.9832;-4.0543;-0.7699;4.6149;-0.2114;0.2011;-1.4633;11970;2022-04-09 18:34:45:887
8.0264;-16.5144;-3.4089;-5.8185;4.1164;1.9223;0.6774;-0.8485;1.0551;12070;2022-04-09 18:34:45:987
-4.5808;-15.6443;-0.8019;0.6957;-0.2861;-2.2346;0.3702;-0.7507;0.2259;12169;2022-04-09 18:34:46:086
-3.1313;-7.1979;-0.0081;-3.95;-4.1274;-0.4866;0.2321;0.3302;0.1096;12269;2022-04-09 18:34:46:186
-2.6154;-7.9651;0.5785;-2.5908;1.9267;0.9894;-0.7367;0.1779;0.6012;12369;2022-04-09 18:34:46:286
-0.8737;-8.5756;1.4812;-0.9636;1.3904;1.4299;0.9001;-2.8036;0.9769;12468;2022-04-09 18:34:46:385
0.1235;-10.6765;1.0298;0.6953;0.5985;0.8586;1.0914;-0.7985;0.7709;12568;2022-04-09 18:34:46:485
-1.3825;-11.1685;-1.4758;2.5883;-1.2041;-1.1214;1.9698;2.2071;0.2355;12669;2022-04-09 18:34:46:586
1.5132;-12.824;-1.7677;1.9624;-1.5003;-1.5129;0.4171;2.3234;0.3715;12770;2022-04-09 18:34:46:687
-2.7661;-13.0884;-1.034;2.7867;-2.5876;0.1861;-2.2832;0.4464;-2.7989;12869;2022-04-09 18:34:46:786
-5.2717;-11.3803;2.016;-2.3309;-2.3583;1.4428;-1.742;-0.1582;-2.3388;12969;2022-04-09 18:34:46:886
-5.056;-6.3526;0.97;-6.3528;-3.5348;5.0386;0.204;0.2654;-1.4172;13075;2022-04-09 18:34:46:992
-3.8506;-4.8072;-0.8833;-4.8655;3.3111;1.2137;0.5204;-0.1868;0.6805;13169;2022-04-09 18:34:47:086
-0.4893;-11.1171;-2.8738;4.4484;-4.4027;-2.9966;0.3317;0.58;-0.0367;13269;2022-04-09 18:34:47:186
-3.8219;-10.5676;-1.2541;5.145;-2.0414;-2.112;0.1628;-0.3297;-0.0999;13369;2022-04-09 18:34:47:286
-2.8463;-12.7005;0.6778;-5.6841;-3.8628;-0.848;-0.7747;0.4193;0.6382;13469;2022-04-09 18:34:47:386
-1.3083;-7.6119;1.3086;-0.8875;-1.0757;2.2543;0.0667;-2.3534;0.7057;13569;2022-04-09 18:34:47:486
-1.0819;-9.0664;1.535;0.6888;0.9763;2.2669;1.4753;-1.0106;0.4193;13669;2022-04-09 18:34:47:586
-1.8685;-10.911;-0.5348;1.5115;0.4655;0.8295;1.7195;0.8202;0.7034;13770;2022-04-09 18:34:47:687
0.2791;-10.8177;-4.6609;1.3843;-1.7399;-2.7815;2.5582;0.4783;0.7953;13869;2022-04-09 18:34:47:786
2.0076;-12.551;-1.2099;3.4905;-1.7477;-3.7444;-2.0766;0.2943;-1.0919;13969;2022-04-09 18:34:47:886
-5.3363;-14.7775;6.2596;3.2015;-2.7242;0.7694;-2.6236;-1.154;-2.9202;14070;2022-04-09 18:34:47:987
-2.4814;-5.8917;-1.8538;-5.4615;-0.3004;4.5849;0.2808;-0.2448;-1.3671;14168;2022-04-09 18:34:48:085
-2.8857;-6.5273;-1.6804;-4.6129;3.5255;0.4549;0.1817;-0.259;-0.6431;14270;2022-04-09 18:34:48:187
7.7306;-13.852;-1.3621;-1.4399;1.3923;-2.1368;0.2098;-1.1018;0.5114;14369;2022-04-09 18:34:48:286
-1.6672;-13.4943;-2.857;6.877;-4.1617;-1.7511;0.1005;0.4623;-0.0231;14469;2022-04-09 18:34:48:386
-3.7789;-12.5545;0.3547;-2.7641;-5.5904;-0.1383;0.0365;0.5459;-0.0499;14569;2022-04-09 18:34:48:486
-1.9259;-6.1947;1.2284;-2.1173;-0.5893;2.487;-0.529;-2.2473;0.5769;14669;2022-04-09 18:34:48:586
-1.7874;-8.8184;1.6642;-0.5773;2.1134;2.557;1.6081;-1.5826;0.6962;14773;2022-04-09 18:34:48:690
-0.4848;-9.9688;0.4178;0.3413;1.3849;1.8223;1.3246;1.1472;0.8706;14868;2022-04-09 18:34:48:785
0.0482;-11.0749;-1.5374;0.0;0.0;0.0;1.9772;0.0128;0.9512;14969;2022-04-09 18:34:48:886
0.4382;-12.0571;-2.4957;-0.2464;-0.3697;-1.2033;-1.8457;0.6735;-0.9977;15069;2022-04-09 18:34:48:986
1.8476;-10.8362;-1.491;-0.2464;-0.3697;-1.2033;-1.8457;0.6735;-0.9977;15169;2022-04-09 18:34:49:086
-4.5924;-10.6155;2.3892;-2.137;0.3333;1.9793;0.1941;0.2973;-1.3032;15269;2022-04-09 18:34:49:186
-4.8269;-4.7698;0.7869;-0.3522;5.4498;-1.8174;0.1645;-0.2596;-0.5808;15370;2022-04-09 18:34:49:287
0.5471;-10.882;-4.0116;0.8596;1.1804;-2.8332;0.3302;-0.6583;0.6643;15469;2022-04-09 18:34:49:386
-3.5737;-16.124;-0.7286;9.6199;-5.1353;-4.2709;0.0447;0.4172;-0.2101;15569;2022-04-09 18:34:49:486
-2.5648;-6.1481;-1.057;0.0;0.0;0.0;0.2509;0.3812;-0.1067;15669;2022-04-09 18:34:49:586
-2.4317;-7.9525;0.7678;0.1921;0.2432;0.7888;-0.797;-1.7292;0.6874;15769;2022-04-09 18:34:49:686
-1.4037;-8.9716;1.1109;0.6218;-0.4214;0.2491;1.0074;-2.2009;1.0261;15874;2022-04-09 18:34:49:791
0.7564;-10.0271;0.213;3.0774;-1.1377;-0.8494;2.1771;1.2487;0.8167;15969;2022-04-09 18:34:49:886
0.0571;-10.6002;-2.9629;3.9571;-2.0897;-1.25;1.7447;2.9857;0.234;16069;2022-04-09 18:34:49:986
0.9553;-11.2493;-2.0444;2.6353;-1.7947;-2.4871;-2.3304;0.3618;-1.1617;16170;2022-04-09 18:34:50:087
-3.8351;-15.7304;2.1861;0.643;-3.2703;0.7072;-2.8322;-0.877;-2.8143;16270;2022-04-09 18:34:50:187
-3.4735;-7.0899;2.8573;-3.6884;-1.439;5.6793;0.0657;-2.4944;-1.2803;16369;2022-04-09 18:34:50:286
-6.2327;-8.0566;0.4609;-3.3297;2.5988;4.0431;1.0681;-1.7386;-0.8695;16469;2022-04-09 18:34:50:386
-2.6318;-11.4042;-7.6989;-3.3012;-0.5894;-4.943;-0.7929;-2.7781;0.855;16572;2022-04-09 18:34:50:489
-1.3137;-10.5942;1.6421;2.2685;-1.7795;-0.7726;-0.7213;-1.6956;0.0363;16671;2022-04-09 18:34:50:588
-2.7329;-9.7143;0.9464;-1.4521;-1.3172;1.0516;1.3765;0.0385;-0.2599;16770;2022-04-09 18:34:50:687
-2.5322;-9.583;-0.2426;-1.8429;1.0078;-2.0842;-0.4592;-1.751;0.5922;16870;2022-04-09 18:34:50:787
-1.7055;-9.5997;1.3478;-1.1221;-0.1893;-1.2316;-0.3155;-1.9775;0.4801;16969;2022-04-09 18:34:50:886
-1.8625;-9.7687;0.3583;-0.1813;0.2656;1.1082;0.2123;0.7848;-0.026;17070;2022-04-09 18:34:50:987
-1.7836;-9.5865;0.2827;-0.0084;0.1467;0.2525;0.3404;0.2219;-0.0996;17172;2022-04-09 18:34:51:089
-1.9283;-9.2629;-0.064;-0.158;0.268;-0.4859;0.2537;0.5711;-0.2766;17269;2022-04-09 18:34:51:186
-1.9283;-9.2629;-0.064;-0.158;0.268;-0.4859;0.2537;0.5711;-0.2766;17406;2022-04-09 18:34:51:323
-2.5155;-9.5617;0.0458;0.0;0.0;0.0;0.0892;0.6339;0.0241;17470;2022-04-09 18:34:51:387
-1.4671;-9.5276;-0.7615;0.487;0.1382;-0.0934;-0.036;-0.4894;-0.0246;17570;2022-04-09 18:34:51:487
-1.7764;-10.019;-0.7101;-0.7565;-0.1166;-0.104;-0.1762;-0.8265;0.0113;17669;2022-04-09 18:34:51:586
-2.6895;-9.2462;0.9003;-0.3862;0.1925;0.6619;-0.1006;-0.084;-0.365;17769;2022-04-09 18:34:51:686
-3.1217;-9.6096;0.6093;-1.8571;0.2457;1.1803;0.1579;0.3004;0.0342;17868;2022-04-09 18:34:51:785
-0.3173;-9.8593;0.0365;-0.4958;-0.0621;0.0086;0.281;-0.5867;0.3005;17969;2022-04-09 18:34:51:886
-0.9571;-9.6455;-1.1082;0.8728;-0.0887;0.0663;0.1755;0.2604;-0.0382;18074;2022-04-09 18:34:51:991
-1.27;-9.3724;-0.0999;-0.6154;0.0337;-0.2952;-0.1052;-0.4679;0.0593;18174;2022-04-09 18:34:52:091
-1.6038;-9.6787;0.1319;-0.0616;0.1373;0.3265;-0.1639;-0.7097;-0.0255;18269;2022-04-09 18:34:52:186
-1.8093;-9.4917;0.5994;-0.1568;-0.0454;0.4999;-0.1855;-0.9554;-5.0E-4;18369;2022-04-09 18:34:52:286
-2.1691;-9.2656;0.7872;-0.2231;0.2513;0.8139;-0.2787;-0.6425;-0.0791;18469;2022-04-09 18:34:52:386
-1.9774;-10.2574;1.1291;-0.7281;0.1332;1.0123;-0.0037;-1.0891;0.2077;18568;2022-04-09 18:34:52:485
0.9817;-9.8336;-2.7697;-0.5199;-0.376;0.5577;0.647;-0.2816;0.2272;18669;2022-04-09 18:34:52:586
0.2408;-10.4369;-0.8665;2.7288;-0.3996;-2.3421;-0.7226;-2.0069;0.2175;18770;2022-04-09 18:34:52:687
0.8046;-11.0498;0.2192;2.3994;-0.9399;-0.7971;-1.142;-3.3477;0.3039;18869;2022-04-09 18:34:52:786
2.4852;-11.1984;2.2424;3.9407;-1.7755;1.1068;-1.8929;-5.3516;0.5638;18969;2022-04-09 18:34:52:886
0.0721;-9.3236;2.3477;5.3045;-1.9779;3.0946;-1.9845;-2.9545;0.117;19069;2022-04-09 18:34:52:986
-1.4183;-9.9703;3.6153;1.6182;0.4111;4.8225;-1.1928;-0.8184;-1.4488;19169;2022-04-09 18:34:53:086
-4.5209;-11.051;1.0609;-1.0726;-0.7341;5.5619;0.1829;0.1009;-1.6427;19269;2022-04-09 18:34:53:186
-5.6186;-10.3184;-2.2155;-5.1628;-0.517;0.0229;2.6329;-3.4276;-0.5629;19370;2022-04-09 18:34:53:287
-2.9061;-7.6513;1.4605;-4.5851;-0.3355;-4.8359;-1.3588;-3.3366;0.722;19469;2022-04-09 18:34:53:386
-2.8546;-13.6032;0.6287;-1.2056;1.4373;1.7468;-0.0548;-1.0905;0.8818;19569;2022-04-09 18:34:53:486
-0.0272;-7.2541;0.8201;-0.3269;-3.2723;0.7236;0.4942;-1.4515;0.4496;19669;2022-04-09 18:34:53:586
-1.4578;-9.4938;-0.2091;1.7823;1.4803;0.511;0.4592;0.2617;-0.0568;19770;2022-04-09 18:34:53:687
-3.3036;-9.8121;1.3744;-0.1935;-0.0373;0.3238;-0.4919;-0.1568;-0.5217;19869;2022-04-09 18:34:53:786
-3.4543;-9.198;1.1447;-1.5797;-0.2915;1.0907;-0.1355;0.483;-0.2614;19970;2022-04-09 18:34:53:887
-1.6887;-9.9978;0.2815;-1.3388;0.3091;0.7935;0.1828;0.0026;0.6748;20070;2022-04-09 18:34:53:987
0.2515;-9.7271;0.4971;0.4142;-0.4111;-0.0372;0.6322;-0.4699;0.7017;20170;2022-04-09 18:34:54:087
-0.1376;-9.9365;-0.0583;2.4596;-0.2083;-0.3048;0.2448;0.7691;-0.2874;20274;2022-04-09 18:34:54:191
-2.2394;-9.6446;-0.0966;1.5452;-0.3012;-0.5713;0.0249;0.5209;-0.4029;20369;2022-04-09 18:34:54:286
-2.5208;-9.5812;0.9341;-0.6072;0.2405;-0.044;-0.3095;-0.323;-0.053;20469;2022-04-09 18:34:54:386
-1.4459;-9.6111;0.3811;-0.6942;0.0901;0.7081;-0.0741;0.1504;0.1171;20570;2022-04-09 18:34:54:487
-1.416;-9.387;0.4911;0.4951;-0.0218;0.0676;0.1381;-0.0562;-0.0489;20669;2022-04-09 18:34:54:586
-1.981;-9.6996;0.1666;0.2872;0.0716;0.104;0.062;0.1784;-0.0524;20769;2022-04-09 18:34:54:686
-1.8769;-9.7929;0.6538;-0.1827;0.0832;-0.1381;-0.0727;-0.1759;0.0342;20869;2022-04-09 18:34:54:786
-1.7103;-9.5381;0.6311;0.1708;-0.1759;0.3361;-0.0076;0.0618;0.0728;20970;2022-04-09 18:34:54:887
-1.404;-9.6673;0.3428;0.2922;-0.0428;0.2365;0.0944;0.2054;0.1138;21069;2022-04-09 18:34:54:986
0.0625;-9.9305;-0.2991;0.8026;-0.2185;-0.3556;0.3538;0.3401;0.0985;21169;2022-04-09 18:34:55:086
-2.0719;-13.3687;-1.4889;1.2084;-0.1299;-0.4782;0.005;2.1778;-0.8017;21269;2022-04-09 18:34:55:186
1.2332;-10.6849;-0.3924;-1.614;-2.6227;-1.0863;-0.4132;0.5818;-0.9419;21369;2022-04-09 18:34:55:286
0.1187;-8.3937;-2.6154;0.3649;-2.0404;0.3728;-0.0548;0.0883;-0.6936;21469;2022-04-09 18:34:55:386
1.3481;-8.0094;-0.8306;-0.496;1.4178;-0.9368;-0.2243;-0.0803;-0.0597;21569;2022-04-09 18:34:55:486
1.6259;-10.218;-0.0667;0.429;1.5348;0.418;0.031;0.159;0.0412;21669;2022-04-09 18:34:55:586
-3.8375;-9.0975;-4.3355;0.0185;-3.4763;0.2094;0.146;0.8033;0.2213;21770;2022-04-09 18:34:55:687
-3.0846;-10.9851;-0.2572;-2.6937;-0.1273;-1.7213;-0.5169;0.3349;1.3141;21874;2022-04-09 18:34:55:791
-0.6317;-7.995;0.8345;-2.1036;-0.2129;1.4499;-0.3257;-1.9625;1.4401;21969;2022-04-09 18:34:55:886
-0.4705;-9.2136;0.5916;1.5989;0.2097;0.7565;0.6307;0.108;0.4748;22068;2022-04-09 18:34:55:985
-1.2969;-9.9951;1.4539;1.9636;-0.0856;-0.5152;1.0998;0.9859;0.0058;22169;2022-04-09 18:34:56:086
-2.0919;-10.1327;0.3787;1.0752;-0.7801;-0.2611;1.2176;2.0111;0.2272;22271;2022-04-09 18:34:56:188
0.6221;-12.1648;-1.1076;1.1612;-1.4075;-2.1404;-0.0275;0.2124;0.5458;22369;2022-04-09 18:34:56:286
-0.3984;-10.6579;-2.1972;1.4963;-1.429;-0.8223;-1.9924;0.969;-2.7183;22473;2022-04-09 18:34:56:390
-2.9201;-9.5725;-0.7334;-2.7626;-2.5178;0.6067;-0.8295;0.7707;-1.9521;22568;2022-04-09 18:34:56:485
-1.0184;-6.775;-1.4898;-2.5581;1.8036;-0.9999;-0.2486;-0.888;-0.795;22669;2022-04-09 18:34:56:586
-1.2823;-8.9716;-1.9735;-4.3235;3.5835;1.6445;0.5508;-0.1996;0.7402;22769;2022-04-09 18:34:56:686
11.0587;-16.194;-4.7844;5.5634;-5.5596;-4.3868;-0.0628;0.1043;-0.23;22869;2022-04-09 18:34:56:786
-3.5859;-7.9113;0.2994;4.9233;-2.4287;-1.6261;-0.175;-0.814;0.1028;22970;2022-04-09 18:34:56:887
-3.0117;-8.4577;0.05;-1.6893;4.0232;1.7819;-1.2748;-0.1135;0.7677;23069;2022-04-09 18:34:56:986
-2.4882;-8.8801;0.4068;-1.8329;-1.1141;1.4895;-0.0122;-2.5225;0.8746;23169;2022-04-09 18:34:57:086
-0.3664;-9.6302;1.9023;0.5986;2.0287;1.1014;1.2252;-1.9623;0.7593;23270;2022-04-09 18:34:57:187
0.0562;-10.4094;0.2097;3.6483;-0.7665;-0.3882;1.9214;2.3832;0.5072;23370;2022-04-09 18:34:57:287
1.6107;-13.1498;-2.0339;3.1599;-1.9197;-1.3581;0.5925;2.205;0.6585;23470;2022-04-09 18:34:57:387
1.7976;-11.3324;-1.322;3.9861;-4.4486;-0.0851;-1.9714;0.7894;-2.575;23570;2022-04-09 18:34:57:487
-3.0326;-13.0938;0.1223;-0.0511;-1.1262;0.2003;-1.8092;-0.5577;-2.712;23915;2022-04-09 18:34:57:832
-3.0326;-13.0938;0.1223;-0.0511;-1.1262;0.2003;-1.8092;-0.5577;-2.712;23916;2022-04-09 18:34:57:833
-3.0326;-13.0938;0.1223;-0.0511;-1.1262;0.2003;-1.8092;-0.5577;-2.712;23916;2022-04-09 18:34:57:833
-3.0326;-13.0938;0.1223;-0.0511;-1.1262;0.2003;-1.8092;-0.5577;-2.712;23916;2022-04-09 18:34:57:833
-3.0326;-13.0938;0.1223;-0.0511;-1.1262;0.2003;-1.8092;-0.5577;-2.712;23916;2022-04-09 18:34:57:833
-3.0326;-13.0938;0.1223;-0.0511;-1.1262;0.2003;-1.8092;-0.5577;-2.712;23917;2022-04-09 18:34:57:834
-3.0326;-13.0938;0.1223;-0.0511;-1.1262;0.2003;-1.8092;-0.5577;-2.712;23917;2022-04-09 18:34:57:834
-3.0326;-13.0938;0.1223;-0.0511;-1.1262;0.2003;-1.8092;-0.5577;-2.712;23917;2022-04-09 18:34:57:834
-3.0326;-13.0938;0.1223;-0.0511;-1.1262;0.2003;-1.8092;-0.5577;-2.712;23918;2022-04-09 18:34:57:835
-3.0326;-13.0938;0.1223;-0.0511;-1.1262;0.2003;-1.8092;-0.5577;-2.712;23918;2022-04-09 18:34:57:835
-3.0326;-13.0938;0.1223;-0.0511;-1.1262;0.2003;-1.8092;-0.5577;-2.712;23918;2022-04-09 18:34:57:835
-3.0326;-13.0938;0.1223;-0.0511;-1.1262;0.2003;-1.8092;-0.5577;-2.712;23918;2022-04-09 18:34:57:835
-3.0326;-13.0938;0.1223;-0.0511;-1.1262;0.2003;-1.8092;-0.5577;-2.712;23919;2022-04-09 18:34:57:836
-3.0326;-13.0938;0.1223;-0.0511;-1.1262;0.2003;-1.8092;-0.5577;-2.712;23919;2022-04-09 18:34:57:836
-3.0326;-13.0938;0.1223;-0.0511;-1.1262;0.2003;-1.8092;-0.5577;-2.712;23919;2022-04-09 18:34:57:836
-5.5256;-11.6764;2.9073;0.0;0.0;0.0;2.1584;0.0409;0.8976;23945;2022-04-09 18:34:57:862
-3.7092;-9.3392;0.684;0.4241;1.7707;1.2133;-0.9367;0.6496;0.4902;24045;2022-04-09 18:34:57:962
-2.0677;-9.1816;0.7657;0.4086;-0.5351;0.0864;0.0678;-1.6195;0.9705;24145;2022-04-09 18:34:58:062
-2.0677;-9.1816;0.7657;1.5356;0.3135;-0.6922;0.728;-1.6023;1.2496;24245;2022-04-09 18:34:58:162
0.1026;-10.9029;0.0069;0.0;0.0;0.0;2.2218;0.9864;0.6557;24346;2022-04-09 18:34:58:263
1.1124;-11.5786;-2.1685;0.7064;-0.4819;-1.4471;-0.0231;1.3565;-0.146;24445;2022-04-09 18:34:58:362
0.2919;-10.3938;-3.8973;0.0;0.0;0.0;-2.0135;0.3364;-2.1413;24546;2022-04-09 18:34:58:463
-5.5582;-13.8218;3.236;0.0;0.0;0.0;-2.3537;-0.586;-2.8653;24646;2022-04-09 18:34:58:563
-2.9025;-6.376;-2.1763;-3.0826;1.9815;1.0588;0.1918;-0.4331;-1.0407;24746;2022-04-09 18:34:58:663
-4.4659;-5.0602;0.3135;0.095;4.3932;-2.3518;0.1182;-0.6348;-0.3091;24847;2022-04-09 18:34:58:764
5.8499;-14.6653;-5.3824;0.4326;1.4964;-2.2027;0.2784;-0.5111;0.2865;24981;2022-04-09 18:34:58:898
-2.9022;-15.0643;-1.7653;0.0;0.0;0.0;-0.1106;0.1484;-0.0365;25045;2022-04-09 18:34:58:962
-2.6267;-4.9286;-0.0891;0.2793;2.1147;0.4855;-0.9618;-0.6081;0.3945;25146;2022-04-09 18:34:59:063
-2.9515;-7.4294;1.0011;-0.6017;1.746;2.2495;-1.3964;-0.5189;0.3176;25246;2022-04-09 18:34:59:163
-1.8718;-9.4666;0.2943;1.6406;1.3452;-0.0718;0.6849;-1.2176;1.0526;25345;2022-04-09 18:34:59:262
-1.4856;-9.8728;1.7177;2.5659;0.017;-0.7242;1.0297;-0.5869;0.3286;25446;2022-04-09 18:34:59:363
-1.4955;-10.8323;0.3416;2.7338;-0.2074;-0.0638;1.7844;2.7323;-0.2063;25545;2022-04-09 18:34:59:462
-0.1989;-9.5928;-2.3366;3.0255;-1.4506;-1.6464;-0.4882;0.8349;0.7188;25647;2022-04-09 18:34:59:564
-3.288;-13.5051;-7.2918;1.7701;-3.082;-0.4626;-2.0637;1.1739;-1.4711;25746;2022-04-09 18:34:59:663
-2.3243;-8.7494;1.8939;1.7701;-3.082;-0.4626;-2.0637;1.1739;-1.4711;25845;2022-04-09 18:34:59:762
-0.3643;-5.0088;-1.9454;0.0;0.0;0.0;-0.5856;1.8008;-0.999;25945;2022-04-09 18:34:59:862
-0.5025;-8.9551;-0.8818;1.4571;0.1231;0.2116;0.9792;-0.0481;0.575;26045;2022-04-09 18:34:59:962
2.0512;-10.474;-5.604;1.9758;-2.4614;-3.2547;0.5571;-1.2121;0.0605;26146;2022-04-09 18:35:00:063
-1.3851;-9.8441;-0.3467;1.8906;-1.8765;-1.8795;0.0878;-1.0659;-0.0999;26246;2022-04-09 18:35:00:163
-2.4503;-10.7447;-2.1808;-1.6359;-0.7661;1.5939;0.7681;0.5834;0.0284;26349;2022-04-09 18:35:00:266
-3.1232;-8.269;1.1719;-0.5284;-0.3677;2.4484;0.381;1.0858;0.168;26447;2022-04-09 18:35:00:364
-2.6662;-9.6541;-0.1869;-1.0488;0.4448;1.4255;0.2367;0.1324;0.1248;26545;2022-04-09 18:35:00:462
-2.9746;-10.1593;0.9951;-1.1648;-1.023;2.3937;-0.3757;2.3214;0.2172;26645;2022-04-09 18:35:00:562
-1.1282;-9.4316;5.6058;-0.5994;-0.8336;2.5297;-0.596;-0.5899;0.6556;26745;2022-04-09 18:35:00:662
-0.7044;-11.3097;0.7699;1.2756;-0.7412;4.6905;1.3344;6.015;0.815;26848;2022-04-09 18:35:00:765
0.1358;-10.8126;-0.6006;2.2592;-2.5404;0.0907;1.2774;2.7441;0.771;26946;2022-04-09 18:35:00:863
0.8237;-8.645;1.1964;2.6686;-0.5612;-0.8185;1.3504;1.9474;-0.4548;27046;2022-04-09 18:35:00:963
-2.7772;-9.9784;-4.992;-0.0596;-3.1688;0.5251;0.5053;4.8801;-1.1411;27146;2022-04-09 18:35:01:063
1.2093;-7.8329;1.6226;1.123;-0.3412;2.1279;-1.3252;-0.4004;0.9586;27245;2022-04-09 18:35:01:162
-0.6461;-6.5752;2.8002;1.8295;2.2499;4.5668;0.8628;1.4624;0.6903;27346;2022-04-09 18:35:01:263
4.3026;-11.0124;-10.879;0.3541;1.2347;2.8751;2.1697;3.8372;0.5391;27446;2022-04-09 18:35:01:363
4.3026;-11.0124;-10.879;2.9578;-3.8149;-7.9597;-0.314;-0.9415;0.2999;27772;2022-04-09 18:35:01:689
4.3026;-11.0124;-10.879;2.9578;-3.8149;-7.9597;-0.314;-0.9415;0.2999;27773;2022-04-09 18:35:01:690
4.3026;-11.0124;-10.879;2.9578;-3.8149;-7.9597;-0.314;-0.9415;0.2999;27773;2022-04-09 18:35:01:690
4.3026;-11.0124;-10.879;2.9578;-3.8149;-7.9597;-0.314;-0.9415;0.2999;27773;2022-04-09 18:35:01:690
4.3026;-11.0124;-10.879;2.9578;-3.8149;-7.9597;-0.314;-0.9415;0.2999;27773;2022-04-09 18:35:01:690
4.3026;-11.0124;-10.879;2.9578;-3.8149;-7.9597;-0.314;-0.9415;0.2999;27773;2022-04-09 18:35:01:690
4.3026;-11.0124;-10.879;2.9578;-3.8149;-7.9597;-0.314;-0.9415;0.2999;27774;2022-04-09 18:35:01:691
4.3026;-11.0124;-10.879;2.9578;-3.8149;-7.9597;-0.314;-0.9415;0.2999;27774;2022-04-09 18:35:01:691
4.3026;-11.0124;-10.879;2.9578;-3.8149;-7.9597;-0.314;-0.9415;0.2999;27774;2022-04-09 18:35:01:691
4.3026;-11.0124;-10.879;2.9578;-3.8149;-7.9597;-0.314;-0.9415;0.2999;27774;2022-04-09 18:35:01:691
4.3026;-11.0124;-10.879;2.9578;-3.8149;-7.9597;-0.314;-0.9415;0.2999;27774;2022-04-09 18:35:01:691
4.3026;-11.0124;-10.879;2.9578;-3.8149;-7.9597;-0.314;-0.9415;0.2999;27774;2022-04-09 18:35:01:691
4.3026;-11.0124;-10.879;2.9578;-3.8149;-7.9597;-0.314;-0.9415;0.2999;27775;2022-04-09 18:35:01:692
4.3026;-11.0124;-10.879;2.9578;-3.8149;-7.9597;-0.314;-0.9415;0.2999;27775;2022-04-09 18:35:01:692
4.3026;-11.0124;-10.879;2.9578;-3.8149;-7.9597;-0.314;-0.9415;0.2999;27775;2022-04-09 18:35:01:692
4.3026;-11.0124;-10.879;2.9578;-3.8149;-7.9597;-0.314;-0.9415;0.2999;27775;2022-04-09 18:35:01:692
4.3026;-11.0124;-10.879;2.9578;-3.8149;-7.9597;-0.314;-0.9415;0.2999;27775;2022-04-09 18:35:01:692
4.3026;-11.0124;-10.879;2.9578;-3.8149;-7.9597;-0.314;-0.9415;0.2999;27775;2022-04-09 18:35:01:692
4.3026;-11.0124;-10.879;2.9578;-3.8149;-7.9597;-0.314;-0.9415;0.2999;27775;2022-04-09 18:35:01:692
4.3026;-11.0124;-10.879;2.9578;-3.8149;-7.9597;-0.314;-0.9415;0.2999;27776;2022-04-09 18:35:01:693
4.3026;-11.0124;-10.879;2.9578;-3.8149;-7.9597;-0.314;-0.9415;0.2999;27776;2022-04-09 18:35:01:693
4.3026;-11.0124;-10.879;2.9578;-3.8149;-7.9597;-0.314;-0.9415;0.2999;27776;2022-04-09 18:35:01:693
4.3026;-11.0124;-10.879;2.9578;-3.8149;-7.9597;-0.314;-0.9415;0.2999;27776;2022-04-09 18:35:01:693
4.3026;-11.0124;-10.879;2.9578;-3.8149;-7.9597;-0.314;-0.9415;0.2999;27776;2022-04-09 18:35:01:693
4.3026;-11.0124;-10.879;2.9578;-3.8149;-7.9597;-0.314;-0.9415;0.2999;27776;2022-04-09 18:35:01:693
0.6843;-9.6637;-0.2432;0.0;0.0;0.0;0.6573;-0.5452;1.6736;27782;2022-04-09 18:35:01:699
0.6843;-9.6637;-0.2432;0.0;0.0;0.0;0.6573;-0.5452;1.6736;27783;2022-04-09 18:35:01:700
0.6843;-9.6637;-0.2432;0.0;0.0;0.0;0.6573;-0.5452;1.6736;27783;2022-04-09 18:35:01:700
0.6843;-9.6637;-0.2432;0.0;0.0;0.0;0.6573;-0.5452;1.6736;27783;2022-04-09 18:35:01:700
0.6843;-9.6637;-0.2432;0.0;0.0;0.0;0.6573;-0.5452;1.6736;27784;2022-04-09 18:35:01:701
-2.6758;-13.5278;-0.3945;-1.4367;0.6584;0.3304;-1.328;0.8129;-2.8432;27861;2022-04-09 18:35:01:778
-2.6758;-13.5278;-0.3945;-1.4367;0.6584;0.3304;-1.328;0.8129;-2.8432;28040;2022-04-09 18:35:01:957
-5.0533;-12.5225;0.0918;0.0;0.0;0.0;-0.2992;0.5116;-1.8159;28062;2022-04-09 18:35:01:979
-4.1617;-5.3916;-1.9271;-0.9155;0.8432;-0.301;0.3271;-0.7275;1.4912;28162;2022-04-09 18:35:02:079
-0.6829;-14.0432;-0.5124;3.2724;-3.9288;-5.7622;0.0208;-1.257;0.6081;28261;2022-04-09 18:35:02:178
-0.6829;-14.0432;-0.5124;3.2724;-3.9288;-5.7622;0.0208;-1.257;0.6081;28595;2022-04-09 18:35:02:512
-0.6829;-14.0432;-0.5124;3.2724;-3.9288;-5.7622;0.0208;-1.257;0.6081;28596;2022-04-09 18:35:02:513
-0.6829;-14.0432;-0.5124;3.2724;-3.9288;-5.7622;0.0208;-1.257;0.6081;28596;2022-04-09 18:35:02:513
-0.6829;-14.0432;-0.5124;3.2724;-3.9288;-5.7622;0.0208;-1.257;0.6081;28596;2022-04-09 18:35:02:513
-0.6829;-14.0432;-0.5124;3.2724;-3.9288;-5.7622;0.0208;-1.257;0.6081;28596;2022-04-09 18:35:02:513
-0.6829;-14.0432;-0.5124;3.2724;-3.9288;-5.7622;0.0208;-1.257;0.6081;28597;2022-04-09 18:35:02:514
-0.6829;-14.0432;-0.5124;3.2724;-3.9288;-5.7622;0.0208;-1.257;0.6081;28597;2022-04-09 18:35:02:514
-0.6829;-14.0432;-0.5124;3.2724;-3.9288;-5.7622;0.0208;-1.257;0.6081;28597;2022-04-09 18:35:02:514
-0.6829;-14.0432;-0.5124;3.2724;-3.9288;-5.7622;0.0208;-1.257;0.6081;28598;2022-04-09 18:35:02:515
-0.6829;-14.0432;-0.5124;3.2724;-3.9288;-5.7622;0.0208;-1.257;0.6081;28598;2022-04-09 18:35:02:515
-0.6829;-14.0432;-0.5124;3.2724;-3.9288;-5.7622;0.0208;-1.257;0.6081;28598;2022-04-09 18:35:02:515
-0.6829;-14.0432;-0.5124;3.2724;-3.9288;-5.7622;0.0208;-1.257;0.6081;28599;2022-04-09 18:35:02:516
-0.6829;-14.0432;-0.5124;3.2724;-3.9288;-5.7622;0.0208;-1.257;0.6081;28599;2022-04-09 18:35:02:516
-0.6829;-14.0432;-0.5124;3.2724;-3.9288;-5.7622;0.0208;-1.257;0.6081;28599;2022-04-09 18:35:02:516
-0.6829;-14.0432;-0.5124;3.2724;-3.9288;-5.7622;0.0208;-1.257;0.6081;28599;2022-04-09 18:35:02:516
-0.6829;-14.0432;-0.5124;3.2724;-3.9288;-5.7622;0.0208;-1.257;0.6081;28600;2022-04-09 18:35:02:517
-0.6829;-14.0432;-0.5124;3.2724;-3.9288;-5.7622;0.0208;-1.257;0.6081;28600;2022-04-09 18:35:02:517
-0.6829;-14.0432;-0.5124;3.2724;-3.9288;-5.7622;0.0208;-1.257;0.6081;28600;2022-04-09 18:35:02:517
-0.6829;-14.0432;-0.5124;3.2724;-3.9288;-5.7622;0.0208;-1.257;0.6081;28600;2022-04-09 18:35:02:517
-0.6829;-14.0432;-0.5124;3.2724;-3.9288;-5.7622;0.0208;-1.257;0.6081;28600;2022-04-09 18:35:02:517
-0.6829;-14.0432;-0.5124;3.2724;-3.9288;-5.7622;0.0208;-1.257;0.6081;28601;2022-04-09 18:35:02:518
-0.6829;-14.0432;-0.5124;3.2724;-3.9288;-5.7622;0.0208;-1.257;0.6081;28601;2022-04-09 18:35:02:518
-0.6829;-14.0432;-0.5124;3.2724;-3.9288;-5.7622;0.0208;-1.257;0.6081;28602;2022-04-09 18:35:02:519
-0.6829;-14.0432;-0.5124;3.2724;-3.9288;-5.7622;0.0208;-1.257;0.6081;28602;2022-04-09 18:35:02:519
-0.6829;-14.0432;-0.5124;3.2724;-3.9288;-5.7622;0.0208;-1.257;0.6081;28603;2022-04-09 18:35:02:520
-0.6829;-14.0432;-0.5124;3.2724;-3.9288;-5.7622;0.0208;-1.257;0.6081;28603;2022-04-09 18:35:02:520
-0.6829;-14.0432;-0.5124;3.2724;-3.9288;-5.7622;0.0208;-1.257;0.6081;28603;2022-04-09 18:35:02:520
-0.6829;-14.0432;-0.5124;3.2724;-3.9288;-5.7622;0.0208;-1.257;0.6081;28604;2022-04-09 18:35:02:521
-0.6829;-14.0432;-0.5124;3.2724;-3.9288;-5.7622;0.0208;-1.257;0.6081;28604;2022-04-09 18:35:02:521
-0.6829;-14.0432;-0.5124;3.2724;-3.9288;-5.7622;0.0208;-1.257;0.6081;28604;2022-04-09 18:35:02:521
-0.6829;-14.0432;-0.5124;3.2724;-3.9288;-5.7622;0.0208;-1.257;0.6081;28605;2022-04-09 18:35:02:522
-0.6829;-14.0432;-0.5124;3.2724;-3.9288;-5.7622;0.0208;-1.257;0.6081;28605;2022-04-09 18:35:02:522
-0.6829;-14.0432;-0.5124;3.2724;-3.9288;-5.7622;0.0208;-1.257;0.6081;28605;2022-04-09 18:35:02:522
-0.6829;-14.0432;-0.5124;3.2724;-3.9288;-5.7622;0.0208;-1.257;0.6081;28605;2022-04-09 18:35:02:522
-0.6829;-14.0432;-0.5124;3.2724;-3.9288;-5.7622;0.0208;-1.257;0.6081;28605;2022-04-09 18:35:02:522
-0.6829;-14.0432;-0.5124;3.2724;-3.9288;-5.7622;0.0208;-1.257;0.6081;28605;2022-04-09 18:35:02:522
-0.6829;-14.0432;-0.5124;3.2724;-3.9288;-5.7622;0.0208;-1.257;0.6081;28606;2022-04-09 18:35:02:523
-0.6829;-14.0432;-0.5124;3.2724;-3.9288;-5.7622;0.0208;-1.257;0.6081;28606;2022-04-09 18:35:02:523
-0.6829;-14.0432;-0.5124;3.2724;-3.9288;-5.7622;0.0208;-1.257;0.6081;28606;2022-04-09 18:35:02:523
-0.6829;-14.0432;-0.5124;3.2724;-3.9288;-5.7622;0.0208;-1.257;0.6081;28606;2022-04-09 18:35:02:523
-0.6829;-14.0432;-0.5124;3.2724;-3.9288;-5.7622;0.0208;-1.257;0.6081;28606;2022-04-09 18:35:02:523
-0.6829;-14.0432;-0.5124;3.2724;-3.9288;-5.7622;0.0208;-1.257;0.6081;28607;2022-04-09 18:35:02:524
-0.6829;-14.0432;-0.5124;3.2724;-3.9288;-5.7622;0.0208;-1.257;0.6081;28607;2022-04-09 18:35:02:524
-0.6829;-14.0432;-0.5124;3.2724;-3.9288;-5.7622;0.0208;-1.257;0.6081;28607;2022-04-09 18:35:02:524
-0.6829;-14.0432;-0.5124;3.2724;-3.9288;-5.7622;0.0208;-1.257;0.6081;28607;2022-04-09 18:35:02:524
-0.6829;-14.0432;-0.5124;3.2724;-3.9288;-5.7622;0.0208;-1.257;0.6081;28607;2022-04-09 18:35:02:524
-0.6829;-14.0432;-0.5124;3.2724;-3.9288;-5.7622;0.0208;-1.257;0.6081;28607;2022-04-09 18:35:02:524
-0.6829;-14.0432;-0.5124;3.2724;-3.9288;-5.7622;0.0208;-1.257;0.6081;28608;2022-04-09 18:35:02:525
-0.6829;-14.0432;-0.5124;3.2724;-3.9288;-5.7622;0.0208;-1.257;0.6081;28608;2022-04-09 18:35:02:525
-0.6829;-14.0432;-0.5124;3.2724;-3.9288;-5.7622;0.0208;-1.257;0.6081;28608;2022-04-09 18:35:02:525
-0.6829;-14.0432;-0.5124;3.2724;-3.9288;-5.7622;0.0208;-1.257;0.6081;28608;2022-04-09 18:35:02:525
-0.6829;-14.0432;-0.5124;3.2724;-3.9288;-5.7622;0.0208;-1.257;0.6081;28608;2022-04-09 18:35:02:525
-0.6829;-14.0432;-0.5124;3.2724;-3.9288;-5.7622;0.0208;-1.257;0.6081;28609;2022-04-09 18:35:02:526
-0.6829;-14.0432;-0.5124;3.2724;-3.9288;-5.7622;0.0208;-1.257;0.6081;28609;2022-04-09 18:35:02:526
-0.6829;-14.0432;-0.5124;3.2724;-3.9288;-5.7622;0.0208;-1.257;0.6081;28609;2022-04-09 18:35:02:526
-0.6829;-14.0432;-0.5124;3.2724;-3.9288;-5.7622;0.0208;-1.257;0.6081;28609;2022-04-09 18:35:02:526
-0.6829;-14.0432;-0.5124;3.2724;-3.9288;-5.7622;0.0208;-1.257;0.6081;28609;2022-04-09 18:35:02:526
-0.6829;-14.0432;-0.5124;3.2724;-3.9288;-5.7622;0.0208;-1.257;0.6081;28610;2022-04-09 18:35:02:527
-1.5069;-8.8454;-1.783;3.2724;-3.9288;-5.7622;0.0208;-1.257;0.6081;28610;2022-04-09 18:35:02:527
-1.5069;-8.8454;-1.783;3.2724;-3.9288;-5.7622;0.0208;-1.257;0.6081;28610;2022-04-09 18:35:02:527
-1.5069;-8.8454;-1.783;3.2724;-3.9288;-5.7622;0.0208;-1.257;0.6081;28610;2022-04-09 18:35:02:527
-1.5069;-8.8454;-1.783;3.2724;-3.9288;-5.7622;0.0208;-1.257;0.6081;28610;2022-04-09 18:35:02:527
-1.5069;-8.8454;-1.783;3.2724;-3.9288;-5.7622;0.0208;-1.257;0.6081;28610;2022-04-09 18:35:02:527
-1.5069;-8.8454;-1.783;3.2724;-3.9288;-5.7622;0.0208;-1.257;0.6081;28611;2022-04-09 18:35:02:528
-1.5069;-8.8454;-1.783;3.2724;-3.9288;-5.7622;0.0208;-1.257;0.6081;28611;2022-04-09 18:35:02:528
-1.5069;-8.8454;-1.783;3.2724;-3.9288;-5.7622;0.0208;-1.257;0.6081;28611;2022-04-09 18:35:02:528
-1.5069;-8.8454;-1.783;3.2724;-3.9288;-5.7622;0.0208;-1.257;0.6081;28611;2022-04-09 18:35:02:528
-1.5069;-8.8454;-1.783;3.2724;-3.9288;-5.7622;0.0208;-1.257;0.6081;28611;2022-04-09 18:35:02:528
-1.5069;-8.8454;-1.783;3.2724;-3.9288;-5.7622;0.0208;-1.257;0.6081;28613;2022-04-09 18:35:02:530
-1.5069;-8.8454;-1.783;3.2724;-3.9288;-5.7622;0.0208;-1.257;0.6081;28613;2022-04-09 18:35:02:530
-1.5069;-8.8454;-1.783;3.2724;-3.9288;-5.7622;0.0208;-1.257;0.6081;28614;2022-04-09 18:35:02:531
-1.5069;-8.8454;-1.783;-3.8995;3.4445;-0.488;-0.1303;-0.146;-0.2118;28625;2022-04-09 18:35:02:542
-1.5069;-8.8454;-1.783;-3.8995;3.4445;-0.488;-0.1303;-0.146;-0.2118;28626;2022-04-09 18:35:02:543
-1.5069;-8.8454;-1.783;-3.8995;3.4445;-0.488;-0.1303;-0.146;-0.2118;28627;2022-04-09 18:35:02:544
-1.5069;-8.8454;-1.783;-3.8995;3.4445;-0.488;-0.1303;-0.146;-0.2118;28627;2022-04-09 18:35:02:544
-1.5069;-8.8454;-1.783;-3.8995;3.4445;-0.488;-0.1303;-0.146;-0.2118;28627;2022-04-09 18:35:02:544
-1.5069;-8.8454;-1.783;-3.8995;3.4445;-0.488;-0.1303;-0.146;-0.2118;28628;2022-04-09 18:35:02:545
-1.5069;-8.8454;-1.783;-3.8995;3.4445;-0.488;-0.1303;-0.146;-0.2118;28628;2022-04-09 18:35:02:545
-1.5069;-8.8454;-1.783;-3.8995;3.4445;-0.488;-0.1303;-0.146;-0.2118;28628;2022-04-09 18:35:02:545
-1.5069;-8.8454;-1.783;-3.8995;3.4445;-0.488;-0.1303;-0.146;-0.2118;28628;2022-04-09 18:35:02:545
-1.5069;-8.8454;-1.783;-3.8995;3.4445;-0.488;-0.1303;-0.146;-0.2118;28628;2022-04-09 18:35:02:545
-1.5069;-8.8454;-1.783;-3.8995;3.4445;-0.488;-0.1303;-0.146;-0.2118;28629;2022-04-09 18:35:02:546
-1.5069;-8.8454;-1.783;-3.8995;3.4445;-0.488;-0.1303;-0.146;-0.2118;28629;2022-04-09 18:35:02:546
-1.5069;-8.8454;-1.783;-3.8995;3.4445;-0.488;-0.1303;-0.146;-0.2118;28629;2022-04-09 18:35:02:546
-1.5069;-8.8454;-1.783;-3.8995;3.4445;-0.488;-0.1303;-0.146;-0.2118;28629;2022-04-09 18:35:02:546
-1.5069;-8.8454;-1.783;-3.8995;3.4445;-0.488;-0.1303;-0.146;-0.2118;28629;2022-04-09 18:35:02:546
-1.5069;-8.8454;-1.783;-3.8995;3.4445;-0.488;-0.1303;-0.146;-0.2118;28630;2022-04-09 18:35:02:547
-1.5069;-8.8454;-1.783;-3.8995;3.4445;-0.488;-0.1303;-0.146;-0.2118;28630;2022-04-09 18:35:02:547
-1.5069;-8.8454;-1.783;-3.8995;3.4445;-0.488;-0.1303;-0.146;-0.2118;28630;2022-04-09 18:35:02:547
-1.5069;-8.8454;-1.783;-3.8995;3.4445;-0.488;-0.1303;-0.146;-0.2118;28630;2022-04-09 18:35:02:547
-1.5069;-8.8454;-1.783;-3.8995;3.4445;-0.488;-0.1303;-0.146;-0.2118;28637;2022-04-09 18:35:02:554
-1.5069;-8.8454;-1.783;-3.8995;3.4445;-0.488;-0.1303;-0.146;-0.2118;28637;2022-04-09 18:35:02:554
-1.5069;-8.8454;-1.783;-3.8995;3.4445;-0.488;-0.1303;-0.146;-0.2118;28638;2022-04-09 18:35:02:555
-1.5069;-8.8454;-1.783;-3.8995;3.4445;-0.488;-0.1303;-0.146;-0.2118;28638;2022-04-09 18:35:02:555
-1.5069;-8.8454;-1.783;-3.8995;3.4445;-0.488;-0.1303;-0.146;-0.2118;28638;2022-04-09 18:35:02:555
-1.5069;-8.8454;-1.783;-3.8995;3.4445;-0.488;-0.1303;-0.146;-0.2118;28638;2022-04-09 18:35:02:555
-1.5069;-8.8454;-1.783;-3.8995;3.4445;-0.488;-0.1303;-0.146;-0.2118;28638;2022-04-09 18:35:02:555
-1.5069;-8.8454;-1.783;-3.8995;3.4445;-0.488;-0.1303;-0.146;-0.2118;28638;2022-04-09 18:35:02:555
-1.5069;-8.8454;-1.783;-3.8995;3.4445;-0.488;-0.1303;-0.146;-0.2118;28638;2022-04-09 18:35:02:555
-1.5069;-8.8454;-1.783;-3.8995;3.4445;-0.488;-0.1303;-0.146;-0.2118;28638;2022-04-09 18:35:02:555
-1.5069;-8.8454;-1.783;-3.8995;3.4445;-0.488;-0.1303;-0.146;-0.2118;28638;2022-04-09 18:35:02:555
-1.5069;-8.8454;-1.783;-3.8995;3.4445;-0.488;-0.1303;-0.146;-0.2118;28638;2022-04-09 18:35:02:555
-1.5069;-8.8454;-1.783;-3.8995;3.4445;-0.488;-0.1303;-0.146;-0.2118;28638;2022-04-09 18:35:02:555
-1.5069;-8.8454;-1.783;-3.8995;3.4445;-0.488;-0.1303;-0.146;-0.2118;28638;2022-04-09 18:35:02:555
-1.5069;-8.8454;-1.783;-3.8995;3.4445;-0.488;-0.1303;-0.146;-0.2118;28638;2022-04-09 18:35:02:555
-1.5069;-8.8454;-1.783;-3.8995;3.4445;-0.488;-0.1303;-0.146;-0.2118;28638;2022-04-09 18:35:02:555
-1.5069;-8.8454;-1.783;-3.8995;3.4445;-0.488;-0.1303;-0.146;-0.2118;28639;2022-04-09 18:35:02:556
-1.5069;-8.8454;-1.783;-3.8995;3.4445;-0.488;-0.1303;-0.146;-0.2118;28639;2022-04-09 18:35:02:556
-1.5069;-8.8454;-1.783;-3.8995;3.4445;-0.488;-0.1303;-0.146;-0.2118;28639;2022-04-09 18:35:02:556
-1.5069;-8.8454;-1.783;-3.8995;3.4445;-0.488;-0.1303;-0.146;-0.2118;28639;2022-04-09 18:35:02:556
-1.5069;-8.8454;-1.783;-3.8995;3.4445;-0.488;-0.1303;-0.146;-0.2118;28639;2022-04-09 18:35:02:556
-1.5069;-8.8454;-1.783;-3.8995;3.4445;-0.488;-0.1303;-0.146;-0.2118;28639;2022-04-09 18:35:02:556
-1.5069;-8.8454;-1.783;-3.8995;3.4445;-0.488;-0.1303;-0.146;-0.2118;28639;2022-04-09 18:35:02:556
-1.5069;-8.8454;-1.783;-3.8995;3.4445;-0.488;-0.1303;-0.146;-0.2118;28639;2022-04-09 18:35:02:556
-1.5069;-8.8454;-1.783;-3.8995;3.4445;-0.488;-0.1303;-0.146;-0.2118;28639;2022-04-09 18:35:02:556
-1.5069;-8.8454;-1.783;-3.8995;3.4445;-0.488;-0.1303;-0.146;-0.2118;28639;2022-04-09 18:35:02:556
-1.5069;-8.8454;-1.783;-3.8995;3.4445;-0.488;-0.1303;-0.146;-0.2118;28639;2022-04-09 18:35:02:556
-1.5069;-8.8454;-1.783;-3.8995;3.4445;-0.488;-0.1303;-0.146;-0.2118;28639;2022-04-09 18:35:02:556
-1.5069;-8.8454;-1.783;-3.8995;3.4445;-0.488;-0.1303;-0.146;-0.2118;28639;2022-04-09 18:35:02:556
-1.5069;-8.8454;-1.783;-3.8995;3.4445;-0.488;-0.1303;-0.146;-0.2118;28639;2022-04-09 18:35:02:556
-1.5069;-8.8454;-1.783;-3.8995;3.4445;-0.488;-0.1303;-0.146;-0.2118;28639;2022-04-09 18:35:02:556
-1.5069;-8.8454;-1.783;-3.8995;3.4445;-0.488;-0.1303;-0.146;-0.2118;28639;2022-04-09 18:35:02:556
-1.5069;-8.8454;-1.783;-3.8995;3.4445;-0.488;-0.1303;-0.146;-0.2118;28640;2022-04-09 18:35:02:557
-1.5069;-8.8454;-1.783;-3.8995;3.4445;-0.488;-0.1303;-0.146;-0.2118;28640;2022-04-09 18:35:02:557
-1.5069;-8.8454;-1.783;-3.8995;3.4445;-0.488;-0.1303;-0.146;-0.2118;28640;2022-04-09 18:35:02:557
-1.5069;-8.8454;-1.783;-3.8995;3.4445;-0.488;-0.1303;-0.146;-0.2118;28640;2022-04-09 18:35:02:557
-1.5069;-8.8454;-1.783;-3.8995;3.4445;-0.488;-0.1303;-0.146;-0.2118;28640;2022-04-09 18:35:02:557
-1.5069;-8.8454;-1.783;-3.8995;3.4445;-0.488;-0.1303;-0.146;-0.2118;28640;2022-04-09 18:35:02:557
-1.5069;-8.8454;-1.783;-3.8995;3.4445;-0.488;-0.1303;-0.146;-0.2118;28640;2022-04-09 18:35:02:557
-1.5069;-8.8454;-1.783;-3.8995;3.4445;-0.488;-0.1303;-0.146;-0.2118;28640;2022-04-09 18:35:02:557
-1.5069;-8.8454;-1.783;-3.8995;3.4445;-0.488;-0.1303;-0.146;-0.2118;28640;2022-04-09 18:35:02:557
-1.5069;-8.8454;-1.783;-3.8995;3.4445;-0.488;-0.1303;-0.146;-0.2118;28640;2022-04-09 18:35:02:557
-1.5069;-8.8454;-1.783;-3.8995;3.4445;-0.488;-0.1303;-0.146;-0.2118;28640;2022-04-09 18:35:02:557
-1.5069;-8.8454;-1.783;-3.8995;3.4445;-0.488;-0.1303;-0.146;-0.2118;28640;2022-04-09 18:35:02:557
-1.5069;-8.8454;-1.783;-3.8995;3.4445;-0.488;-0.1303;-0.146;-0.2118;28640;2022-04-09 18:35:02:557
-1.5069;-8.8454;-1.783;-3.8995;3.4445;-0.488;-0.1303;-0.146;-0.2118;28640;2022-04-09 18:35:02:557
-1.5069;-8.8454;-1.783;-3.8995;3.4445;-0.488;-0.1303;-0.146;-0.2118;28640;2022-04-09 18:35:02:557
-1.5069;-8.8454;-1.783;-3.8995;3.4445;-0.488;-0.1303;-0.146;-0.2118;28640;2022-04-09 18:35:02:557
-1.5069;-8.8454;-1.783;-3.8995;3.4445;-0.488;-0.1303;-0.146;-0.2118;28640;2022-04-09 18:35:02:557
-1.5069;-8.8454;-1.783;-3.8995;3.4445;-0.488;-0.1303;-0.146;-0.2118;28640;2022-04-09 18:35:02:557
-1.5069;-8.8454;-1.783;-3.8995;3.4445;-0.488;-0.1303;-0.146;-0.2118;28641;2022-04-09 18:35:02:558
-1.5069;-8.8454;-1.783;-3.8995;3.4445;-0.488;-0.1303;-0.146;-0.2118;28641;2022-04-09 18:35:02:558
-1.5069;-8.8454;-1.783;-3.8995;3.4445;-0.488;-0.1303;-0.146;-0.2118;28641;2022-04-09 18:35:02:558
-1.5069;-8.8454;-1.783;-3.8995;3.4445;-0.488;-0.1303;-0.146;-0.2118;28641;2022-04-09 18:35:02:558
-1.5069;-8.8454;-1.783;-3.8995;3.4445;-0.488;-0.1303;-0.146;-0.2118;28641;2022-04-09 18:35:02:558
-1.5069;-8.8454;-1.783;-3.8995;3.4445;-0.488;-0.1303;-0.146;-0.2118;28641;2022-04-09 18:35:02:558
-1.5069;-8.8454;-1.783;-3.8995;3.4445;-0.488;-0.1303;-0.146;-0.2118;28641;2022-04-09 18:35:02:558
-1.5069;-8.8454;-1.783;-3.8995;3.4445;-0.488;-0.1303;-0.146;-0.2118;28641;2022-04-09 18:35:02:558
-1.5069;-8.8454;-1.783;-3.8995;3.4445;-0.488;-0.1303;-0.146;-0.2118;28641;2022-04-09 18:35:02:558
-1.5069;-8.8454;-1.783;-3.8995;3.4445;-0.488;-0.1303;-0.146;-0.2118;28641;2022-04-09 18:35:02:558
-1.5069;-8.8454;-1.783;-3.8995;3.4445;-0.488;-0.1303;-0.146;-0.2118;28641;2022-04-09 18:35:02:558
-1.5069;-8.8454;-1.783;-3.8995;3.4445;-0.488;-0.1303;-0.146;-0.2118;28641;2022-04-09 18:35:02:558
-1.5069;-8.8454;-1.783;-3.8995;3.4445;-0.488;-0.1303;-0.146;-0.2118;28641;2022-04-09 18:35:02:558
-1.5069;-8.8454;-1.783;-3.8995;3.4445;-0.488;-0.1303;-0.146;-0.2118;28641;2022-04-09 18:35:02:558
-1.5069;-8.8454;-1.783;-3.8995;3.4445;-0.488;-0.1303;-0.146;-0.2118;28641;2022-04-09 18:35:02:558
-1.5069;-8.8454;-1.783;-3.8995;3.4445;-0.488;-0.1303;-0.146;-0.2118;28641;2022-04-09 18:35:02:558
-1.5069;-8.8454;-1.783;-3.8995;3.4445;-0.488;-0.1303;-0.146;-0.2118;28641;2022-04-09 18:35:02:558
-1.5069;-8.8454;-1.783;-3.8995;3.4445;-0.488;-0.1303;-0.146;-0.2118;28642;2022-04-09 18:35:02:559
-1.5069;-8.8454;-1.783;-3.8995;3.4445;-0.488;-0.1303;-0.146;-0.2118;28642;2022-04-09 18:35:02:559
-1.5069;-8.8454;-1.783;-3.8995;3.4445;-0.488;-0.1303;-0.146;-0.2118;28642;2022-04-09 18:35:02:559
-1.5069;-8.8454;-1.783;-3.8995;3.4445;-0.488;-0.1303;-0.146;-0.2118;28642;2022-04-09 18:35:02:559
-1.5069;-8.8454;-1.783;-3.8995;3.4445;-0.488;-0.1303;-0.146;-0.2118;28642;2022-04-09 18:35:02:559
-1.5069;-8.8454;-1.783;-3.8995;3.4445;-0.488;-0.1303;-0.146;-0.2118;28642;2022-04-09 18:35:02:559
-1.5069;-8.8454;-1.783;-3.8995;3.4445;-0.488;-0.1303;-0.146;-0.2118;28642;2022-04-09 18:35:02:559
-1.5069;-8.8454;-1.783;-3.8995;3.4445;-0.488;-0.1303;-0.146;-0.2118;28642;2022-04-09 18:35:02:559
-1.5069;-8.8454;-1.783;-3.8995;3.4445;-0.488;-0.1303;-0.146;-0.2118;28642;2022-04-09 18:35:02:559
-1.5069;-8.8454;-1.783;-3.8995;3.4445;-0.488;-0.1303;-0.146;-0.2118;28642;2022-04-09 18:35:02:559
-1.5069;-8.8454;-1.783;-3.8995;3.4445;-0.488;-0.1303;-0.146;-0.2118;28642;2022-04-09 18:35:02:559
-1.5069;-8.8454;-1.783;-3.8995;3.4445;-0.488;-0.1303;-0.146;-0.2118;28642;2022-04-09 18:35:02:559
-1.5069;-8.8454;-1.783;-3.8995;3.4445;-0.488;-0.1303;-0.146;-0.2118;28642;2022-04-09 18:35:02:559
-1.5069;-8.8454;-1.783;-3.8995;3.4445;-0.488;-0.1303;-0.146;-0.2118;28642;2022-04-09 18:35:02:559
-1.5069;-8.8454;-1.783;-3.8995;3.4445;-0.488;-0.1303;-0.146;-0.2118;28642;2022-04-09 18:35:02:559
-1.5069;-8.8454;-1.783;-3.8995;3.4445;-0.488;-0.1303;-0.146;-0.2118;28643;2022-04-09 18:35:02:560
-1.5069;-8.8454;-1.783;-3.8995;3.4445;-0.488;-0.1303;-0.146;-0.2118;28643;2022-04-09 18:35:02:560
-1.5069;-8.8454;-1.783;-3.8995;3.4445;-0.488;-0.1303;-0.146;-0.2118;28643;2022-04-09 18:35:02:560
-1.5069;-8.8454;-1.783;-3.8995;3.4445;-0.488;-0.1303;-0.146;-0.2118;28643;2022-04-09 18:35:02:560
-1.5069;-8.8454;-1.783;-3.8995;3.4445;-0.488;-0.1303;-0.146;-0.2118;28643;2022-04-09 18:35:02:560
-1.5069;-8.8454;-1.783;-3.8995;3.4445;-0.488;-0.1303;-0.146;-0.2118;28643;2022-04-09 18:35:02:560
-1.5069;-8.8454;-1.783;-3.8995;3.4445;-0.488;-0.1303;-0.146;-0.2118;28643;2022-04-09 18:35:02:560
-1.5069;-8.8454;-1.783;-3.8995;3.4445;-0.488;-0.1303;-0.146;-0.2118;28643;2022-04-09 18:35:02:560
-1.5069;-8.8454;-1.783;-3.8995;3.4445;-0.488;-0.1303;-0.146;-0.2118;28643;2022-04-09 18:35:02:560
-1.5069;-8.8454;-1.783;-3.8995;3.4445;-0.488;-0.1303;-0.146;-0.2118;28643;2022-04-09 18:35:02:560
-1.5069;-8.8454;-1.783;-3.8995;3.4445;-0.488;-0.1303;-0.146;-0.2118;28643;2022-04-09 18:35:02:560
-1.5069;-8.8454;-1.783;-3.8995;3.4445;-0.488;-0.1303;-0.146;-0.2118;28643;2022-04-09 18:35:02:560
-1.5069;-8.8454;-1.783;-3.8995;3.4445;-0.488;-0.1303;-0.146;-0.2118;28643;2022-04-09 18:35:02:560
-1.5069;-8.8454;-1.783;-3.8995;3.4445;-0.488;-0.1303;-0.146;-0.2118;28643;2022-04-09 18:35:02:560
-1.5069;-8.8454;-1.783;-3.8995;3.4445;-0.488;-0.1303;-0.146;-0.2118;28644;2022-04-09 18:35:02:561
-1.5069;-8.8454;-1.783;-3.8995;3.4445;-0.488;-0.1303;-0.146;-0.2118;28644;2022-04-09 18:35:02:561
-1.5069;-8.8454;-1.783;-3.8995;3.4445;-0.488;-0.1303;-0.146;-0.2118;28644;2022-04-09 18:35:02:561
-1.5069;-8.8454;-1.783;-3.8995;3.4445;-0.488;-0.1303;-0.146;-0.2118;28644;2022-04-09 18:35:02:561
-1.5069;-8.8454;-1.783;-3.8995;3.4445;-0.488;-0.1303;-0.146;-0.2118;28646;2022-04-09 18:35:02:563
-1.5069;-8.8454;-1.783;-3.8995;3.4445;-0.488;-0.1303;-0.146;-0.2118;28647;2022-04-09 18:35:02:564
-1.5069;-8.8454;-1.783;-3.8995;3.4445;-0.488;-0.1303;-0.146;-0.2118;28647;2022-04-09 18:35:02:564
-1.5069;-8.8454;-1.783;-3.8995;3.4445;-0.488;-0.1303;-0.146;-0.2118;28647;2022-04-09 18:35:02:564
-1.5069;-8.8454;-1.783;-3.8995;3.4445;-0.488;-0.1303;-0.146;-0.2118;28647;2022-04-09 18:35:02:564
-1.5069;-8.8454;-1.783;-3.8995;3.4445;-0.488;-0.1303;-0.146;-0.2118;28647;2022-04-09 18:35:02:564
-1.5069;-8.8454;-1.783;-3.8995;3.4445;-0.488;-0.1303;-0.146;-0.2118;28647;2022-04-09 18:35:02:564
-1.5069;-8.8454;-1.783;-3.8995;3.4445;-0.488;-0.1303;-0.146;-0.2118;28647;2022-04-09 18:35:02:564
-1.5069;-8.8454;-1.783;-3.8995;3.4445;-0.488;-0.1303;-0.146;-0.2118;28647;2022-04-09 18:35:02:564
-1.5069;-8.8454;-1.783;-3.8995;3.4445;-0.488;-0.1303;-0.146;-0.2118;28647;2022-04-09 18:35:02:564
-1.5069;-8.8454;-1.783;-3.8995;3.4445;-0.488;-0.1303;-0.146;-0.2118;28647;2022-04-09 18:35:02:564
-1.5069;-8.8454;-1.783;-3.8995;3.4445;-0.488;-0.1303;-0.146;-0.2118;28647;2022-04-09 18:35:02:564
-1.5069;-8.8454;-1.783;-3.8995;3.4445;-0.488;-0.1303;-0.146;-0.2118;28647;2022-04-09 18:35:02:564
-1.5069;-8.8454;-1.783;-3.8995;3.4445;-0.488;-0.1303;-0.146;-0.2118;28647;2022-04-09 18:35:02:564
-1.5069;-8.8454;-1.783;-3.8995;3.4445;-0.488;-0.1303;-0.146;-0.2118;28647;2022-04-09 18:35:02:564
-1.5069;-8.8454;-1.783;-3.8995;3.4445;-0.488;-0.1303;-0.146;-0.2118;28648;2022-04-09 18:35:02:565
-1.5069;-8.8454;-1.783;-3.8995;3.4445;-0.488;-0.1303;-0.146;-0.2118;28648;2022-04-09 18:35:02:565
-1.5069;-8.8454;-1.783;-3.8995;3.4445;-0.488;-0.1303;-0.146;-0.2118;28648;2022-04-09 18:35:02:565
-1.5069;-8.8454;-1.783;-3.8995;3.4445;-0.488;-0.1303;-0.146;-0.2118;28648;2022-04-09 18:35:02:565
-1.5069;-8.8454;-1.783;-3.8995;3.4445;-0.488;-0.1303;-0.146;-0.2118;28648;2022-04-09 18:35:02:565
-1.5069;-8.8454;-1.783;-3.8995;3.4445;-0.488;-0.1303;-0.146;-0.2118;28648;2022-04-09 18:35:02:565
-1.5069;-8.8454;-1.783;-3.8995;3.4445;-0.488;-0.1303;-0.146;-0.2118;28648;2022-04-09 18:35:02:565
-1.5069;-8.8454;-1.783;-3.8995;3.4445;-0.488;-0.1303;-0.146;-0.2118;28648;2022-04-09 18:35:02:565
-1.5069;-8.8454;-1.783;-3.8995;3.4445;-0.488;-0.1303;-0.146;-0.2118;28648;2022-04-09 18:35:02:565
-1.5069;-8.8454;-1.783;-3.8995;3.4445;-0.488;-0.1303;-0.146;-0.2118;28648;2022-04-09 18:35:02:565
-1.5069;-8.8454;-1.783;-3.8995;3.4445;-0.488;-0.1303;-0.146;-0.2118;28648;2022-04-09 18:35:02:565
-1.5069;-8.8454;-1.783;-3.8995;3.4445;-0.488;-0.1303;-0.146;-0.2118;28648;2022-04-09 18:35:02:565
-1.5069;-8.8454;-1.783;-3.8995;3.4445;-0.488;-0.1303;-0.146;-0.2118;28648;2022-04-09 18:35:02:565
-1.5069;-8.8454;-1.783;-3.8995;3.4445;-0.488;-0.1303;-0.146;-0.2118;28648;2022-04-09 18:35:02:565
-1.5069;-8.8454;-1.783;-3.8995;3.4445;-0.488;-0.1303;-0.146;-0.2118;28648;2022-04-09 18:35:02:565
1.3496;-11.0815;-3.6281;-3.8995;3.4445;-0.488;-0.1303;-0.146;-0.2118;28683;2022-04-09 18:35:02:600
-3.8913;-14.2621;-3.0096;-3.3278;-0.7096;0.0963;-2.8928;-1.9903;-2.19;28783;2022-04-09 18:35:02:700
-2.4709;-6.0852;-0.2512;-5.6322;-4.6542;6.2087;-1.2131;-1.729;-0.3702;28883;2022-04-09 18:35:02:800
-1.7623;-5.0761;1.4282;-0.2622;3.9353;4.9728;0.4465;-0.7127;0.2488;28983;2022-04-09 18:35:02:900
0.6425;-10.0038;-7.3038;0.9036;3.3074;1.6316;0.3726;-1.2438;0.6217;29083;2022-04-09 18:35:03:000
-0.9882;-8.1841;-2.8005;0.9036;3.3074;1.6316;0.3726;-1.2438;0.6217;29182;2022-04-09 18:35:03:099
-1.5571;-7.1411;-0.0993;0.0;0.0;0.0;0.336;-0.1087;-0.3138;29283;2022-04-09 18:35:03:200
-3.5447;-9.1241;0.9571;1.0179;3.3355;1.0821;0.5295;1.9469;-0.235;29383;2022-04-09 18:35:03:300
-3.5447;-9.1241;0.9571;1.0179;3.3355;1.0821;0.5295;1.9469;-0.235;29588;2022-04-09 18:35:03:505
-3.5447;-9.1241;0.9571;1.0179;3.3355;1.0821;0.5295;1.9469;-0.235;29589;2022-04-09 18:35:03:506
2.6659;-9.5731;0.3766;0.0;0.0;0.0;0.3143;1.5508;0.0012;29683;2022-04-09 18:35:03:600
0.6153;-10.2867;-11.6752;-0.0718;-0.9501;-0.4389;0.2587;7.9415;-1.7482;29785;2022-04-09 18:35:03:702
-3.0132;-13.7321;3.0763;-5.5301;-1.3562;-2.5695;-0.8103;-1.1618;-1.4566;29888;2022-04-09 18:35:03:805
-2.3578;-6.3984;-3.9876;-5.1346;-1.141;6.303;1.118;1.2959;-0.6148;29984;2022-04-09 18:35:03:901
-3.8118;-6.4875;0.0721;-1.8412;4.6517;-0.7585;0.5979;-0.8451;0.1994;30084;2022-04-09 18:35:04:001
3.3066;-12.7693;-5.1203;-1.4095;0.9888;-0.3747;1.6342;1.7655;1.1201;30184;2022-04-09 18:35:04:101
-4.6567;-15.536;-2.8403;-0.8704;-4.8223;-3.1476;-0.7665;0.261;-0.4963;30284;2022-04-09 18:35:04:201
-3.0757;-3.9808;0.8722;-5.3709;0.497;0.3677;-1.1145;1.1232;-0.1014;30384;2022-04-09 18:35:04:301
-3.3975;-8.3569;0.0748;-3.9613;3.5249;2.7648;0.0985;2.9174;0.3798;30484;2022-04-09 18:35:04:401
-2.225;-10.4689;-0.2521;-0.4405;0.5881;1.1447;-1.1478;-0.9161;2.1613;30584;2022-04-09 18:35:04:501
2.3318;-7.9229;1.1261;5.3064;-0.0838;1.8597;1.3845;1.771;0.562;30683;2022-04-09 18:35:04:600
2.6324;-9.6939;1.0433;5.144;1.5349;0.2496;0.706;4.9037;-1.7574;30788;2022-04-09 18:35:04:705
-7.2102;-10.5658;-14.6818;2.3068;-2.797;0.9008;3.0115;9.1945;-2.0505;30884;2022-04-09 18:35:04:801
-1.276;-7.9561;2.9384;-2.4121;0.7194;1.292;-0.319;1.125;0.5223;30989;2022-04-09 18:35:04:906
-0.7801;-8.8747;1.1767;1.3116;3.5673;3.4932;0.7776;2.5987;0.3661;31083;2022-04-09 18:35:05:000
-0.9206;-14.9563;1.3896;1.5288;-1.3159;-0.4389;2.7616;3.2633;0.8182;31183;2022-04-09 18:35:05:100
-1.9047;-8.1509;-1.6442;3.6754;-7.6986;-0.3137;1.7962;4.3845;-0.9477;31284;2022-04-09 18:35:05:201
-2.12;-11.1021;1.4524;0.4037;-0.5302;-0.6978;-0.6608;0.2923;-0.3433;31385;2022-04-09 18:35:05:302
-2.5295;-9.8192;2.0417;-0.6807;0.0273;2.6786;-0.1232;3.2631;0.3343;31483;2022-04-09 18:35:05:400
-1.2763;-9.4807;0.0903;-0.6807;0.0273;2.6786;-0.1232;3.2631;0.3343;31832;2022-04-09 18:35:05:749
-1.2763;-9.4807;0.0903;-0.6807;0.0273;2.6786;-0.1232;3.2631;0.3343;31833;2022-04-09 18:35:05:750
-1.2763;-9.4807;0.0903;-0.6807;0.0273;2.6786;-0.1232;3.2631;0.3343;31834;2022-04-09 18:35:05:751
-1.2763;-9.4807;0.0903;-0.6807;0.0273;2.6786;-0.1232;3.2631;0.3343;31835;2022-04-09 18:35:05:752
-1.2763;-9.4807;0.0903;-0.6807;0.0273;2.6786;-0.1232;3.2631;0.3343;31835;2022-04-09 18:35:05:752
-1.2763;-9.4807;0.0903;-0.6807;0.0273;2.6786;-0.1232;3.2631;0.3343;31836;2022-04-09 18:35:05:753
-1.2763;-9.4807;0.0903;-0.6807;0.0273;2.6786;-0.1232;3.2631;0.3343;31836;2022-04-09 18:35:05:753
-1.2763;-9.4807;0.0903;-0.6807;0.0273;2.6786;-0.1232;3.2631;0.3343;31836;2022-04-09 18:35:05:753
-1.2763;-9.4807;0.0903;-0.6807;0.0273;2.6786;-0.1232;3.2631;0.3343;31836;2022-04-09 18:35:05:753
-1.2763;-9.4807;0.0903;-0.6807;0.0273;2.6786;-0.1232;3.2631;0.3343;31836;2022-04-09 18:35:05:753
-1.2763;-9.4807;0.0903;-0.6807;0.0273;2.6786;-0.1232;3.2631;0.3343;31837;2022-04-09 18:35:05:754
-1.2763;-9.4807;0.0903;-0.6807;0.0273;2.6786;-0.1232;3.2631;0.3343;31837;2022-04-09 18:35:05:754
-1.2763;-9.4807;0.0903;-0.6807;0.0273;2.6786;-0.1232;3.2631;0.3343;31837;2022-04-09 18:35:05:754
-1.2763;-9.4807;0.0903;-0.6807;0.0273;2.6786;-0.1232;3.2631;0.3343;31837;2022-04-09 18:35:05:754
-1.2763;-9.4807;0.0903;-0.6807;0.0273;2.6786;-0.1232;3.2631;0.3343;31837;2022-04-09 18:35:05:754
-1.2763;-9.4807;0.0903;-0.6807;0.0273;2.6786;-0.1232;3.2631;0.3343;31837;2022-04-09 18:35:05:754
-1.2763;-9.4807;0.0903;-0.6807;0.0273;2.6786;-0.1232;3.2631;0.3343;31837;2022-04-09 18:35:05:754
-1.2763;-9.4807;0.0903;-0.6807;0.0273;2.6786;-0.1232;3.2631;0.3343;31838;2022-04-09 18:35:05:755
-1.2763;-9.4807;0.0903;-0.6807;0.0273;2.6786;-0.1232;3.2631;0.3343;31838;2022-04-09 18:35:05:755
-1.2763;-9.4807;0.0903;-0.6807;0.0273;2.6786;-0.1232;3.2631;0.3343;31838;2022-04-09 18:35:05:755
-1.2763;-9.4807;0.0903;-0.6807;0.0273;2.6786;-0.1232;3.2631;0.3343;31838;2022-04-09 18:35:05:755
-1.2763;-9.4807;0.0903;-0.6807;0.0273;2.6786;-0.1232;3.2631;0.3343;31838;2022-04-09 18:35:05:755
-1.2763;-9.4807;0.0903;-0.6807;0.0273;2.6786;-0.1232;3.2631;0.3343;31838;2022-04-09 18:35:05:755
-1.2763;-9.4807;0.0903;-0.6807;0.0273;2.6786;-0.1232;3.2631;0.3343;31839;2022-04-09 18:35:05:756
-1.2763;-9.4807;0.0903;-0.6807;0.0273;2.6786;-0.1232;3.2631;0.3343;31839;2022-04-09 18:35:05:756
-1.2763;-9.4807;0.0903;-0.6807;0.0273;2.6786;-0.1232;3.2631;0.3343;31839;2022-04-09 18:35:05:756
-1.2763;-9.4807;0.0903;-0.6807;0.0273;2.6786;-0.1232;3.2631;0.3343;31839;2022-04-09 18:35:05:756
-1.2763;-9.4807;0.0903;-0.6807;0.0273;2.6786;-0.1232;3.2631;0.3343;31839;2022-04-09 18:35:05:756
-1.2763;-9.4807;0.0903;-0.6807;0.0273;2.6786;-0.1232;3.2631;0.3343;31839;2022-04-09 18:35:05:756
-1.2763;-9.4807;0.0903;-0.6807;0.0273;2.6786;-0.1232;3.2631;0.3343;31840;2022-04-09 18:35:05:757
-1.2763;-9.4807;0.0903;-0.6807;0.0273;2.6786;-0.1232;3.2631;0.3343;31840;2022-04-09 18:35:05:757
-1.2763;-9.4807;0.0903;-0.6807;0.0273;2.6786;-0.1232;3.2631;0.3343;31840;2022-04-09 18:35:05:757
-2.6393;-8.219;0.7137;0.0;0.0;0.0;-0.9102;2.3594;-1.6129;31884;2022-04-09 18:35:05:801
0.125;-10.1749;0.909;0.0;0.0;0.0;1.4389;-1.7667;0.4383;32262;2022-04-09 18:35:06:179
0.125;-10.1749;0.909;0.0;0.0;0.0;1.4389;-1.7667;0.4383;32263;2022-04-09 18:35:06:180
0.125;-10.1749;0.909;0.0;0.0;0.0;1.4389;-1.7667;0.4383;32264;2022-04-09 18:35:06:181
0.125;-10.1749;0.909;0.0;0.0;0.0;1.4389;-1.7667;0.4383;32264;2022-04-09 18:35:06:181
0.125;-10.1749;0.909;0.0;0.0;0.0;1.4389;-1.7667;0.4383;32264;2022-04-09 18:35:06:181
0.125;-10.1749;0.909;0.0;0.0;0.0;1.4389;-1.7667;0.4383;32264;2022-04-09 18:35:06:181
0.125;-10.1749;0.909;0.0;0.0;0.0;1.4389;-1.7667;0.4383;32264;2022-04-09 18:35:06:181
0.125;-10.1749;0.909;0.0;0.0;0.0;1.4389;-1.7667;0.4383;32264;2022-04-09 18:35:06:181
0.125;-10.1749;0.909;0.0;0.0;0.0;1.4389;-1.7667;0.4383;32273;2022-04-09 18:35:06:190
-4.8547;-12.62;-0.1893;9.6802;-6.3391;-3.1065;-0.1668;-0.2575;-0.3873;32286;2022-04-09 18:35:06:203
-4.8547;-12.62;-0.1893;9.6802;-6.3391;-3.1065;-0.1668;-0.2575;-0.3873;32286;2022-04-09 18:35:06:203
-4.8547;-12.62;-0.1893;9.6802;-6.3391;-3.1065;-0.1668;-0.2575;-0.3873;32287;2022-04-09 18:35:06:204
-4.8547;-12.62;-0.1893;9.6802;-6.3391;-3.1065;-0.1668;-0.2575;-0.3873;32287;2022-04-09 18:35:06:204
-4.8547;-12.62;-0.1893;9.6802;-6.3391;-3.1065;-0.1668;-0.2575;-0.3873;32287;2022-04-09 18:35:06:204
-4.8547;-12.62;-0.1893;9.6802;-6.3391;-3.1065;-0.1668;-0.2575;-0.3873;32287;2022-04-09 18:35:06:204
-4.8547;-12.62;-0.1893;9.6802;-6.3391;-3.1065;-0.1668;-0.2575;-0.3873;32287;2022-04-09 18:35:06:204
-4.8547;-12.62;-0.1893;9.6802;-6.3391;-3.1065;-0.1668;-0.2575;-0.3873;32287;2022-04-09 18:35:06:204
-4.8547;-12.62;-0.1893;9.6802;-6.3391;-3.1065;-0.1668;-0.2575;-0.3873;32287;2022-04-09 18:35:06:204
-4.8547;-12.62;-0.1893;9.6802;-6.3391;-3.1065;-0.1668;-0.2575;-0.3873;32288;2022-04-09 18:35:06:205
-4.8547;-12.62;-0.1893;9.6802;-6.3391;-3.1065;-0.1668;-0.2575;-0.3873;32288;2022-04-09 18:35:06:205
-4.8547;-12.62;-0.1893;9.6802;-6.3391;-3.1065;-0.1668;-0.2575;-0.3873;32288;2022-04-09 18:35:06:205
-4.8547;-12.62;-0.1893;9.6802;-6.3391;-3.1065;-0.1668;-0.2575;-0.3873;32288;2022-04-09 18:35:06:205
-4.8547;-12.62;-0.1893;9.6802;-6.3391;-3.1065;-0.1668;-0.2575;-0.3873;32288;2022-04-09 18:35:06:205
-4.8547;-12.62;-0.1893;9.6802;-6.3391;-3.1065;-0.1668;-0.2575;-0.3873;32288;2022-04-09 18:35:06:205
-4.8547;-12.62;-0.1893;9.6802;-6.3391;-3.1065;-0.1668;-0.2575;-0.3873;32288;2022-04-09 18:35:06:205
-4.8547;-12.62;-0.1893;9.6802;-6.3391;-3.1065;-0.1668;-0.2575;-0.3873;32289;2022-04-09 18:35:06:206
-4.8547;-12.62;-0.1893;9.6802;-6.3391;-3.1065;-0.1668;-0.2575;-0.3873;32289;2022-04-09 18:35:06:206
-4.8547;-12.62;-0.1893;9.6802;-6.3391;-3.1065;-0.1668;-0.2575;-0.3873;32289;2022-04-09 18:35:06:206
-4.8547;-12.62;-0.1893;9.6802;-6.3391;-3.1065;-0.1668;-0.2575;-0.3873;32289;2022-04-09 18:35:06:206
-4.8547;-12.62;-0.1893;9.6802;-6.3391;-3.1065;-0.1668;-0.2575;-0.3873;32289;2022-04-09 18:35:06:206
-4.8547;-12.62;-0.1893;9.6802;-6.3391;-3.1065;-0.1668;-0.2575;-0.3873;32289;2022-04-09 18:35:06:206
-4.8547;-12.62;-0.1893;9.6802;-6.3391;-3.1065;-0.1668;-0.2575;-0.3873;32289;2022-04-09 18:35:06:206
-4.8547;-12.62;-0.1893;9.6802;-6.3391;-3.1065;-0.1668;-0.2575;-0.3873;32290;2022-04-09 18:35:06:207
-4.8547;-12.62;-0.1893;9.6802;-6.3391;-3.1065;-0.1668;-0.2575;-0.3873;32290;2022-04-09 18:35:06:207
-4.8547;-12.62;-0.1893;9.6802;-6.3391;-3.1065;-0.1668;-0.2575;-0.3873;32290;2022-04-09 18:35:06:207
-4.8547;-12.62;-0.1893;9.6802;-6.3391;-3.1065;-0.1668;-0.2575;-0.3873;32290;2022-04-09 18:35:06:207
-4.8547;-12.62;-0.1893;9.6802;-6.3391;-3.1065;-0.1668;-0.2575;-0.3873;32290;2022-04-09 18:35:06:207
-4.8547;-12.62;-0.1893;9.6802;-6.3391;-3.1065;-0.1668;-0.2575;-0.3873;32290;2022-04-09 18:35:06:207
-4.8547;-12.62;-0.1893;9.6802;-6.3391;-3.1065;-0.1668;-0.2575;-0.3873;32290;2022-04-09 18:35:06:207
-4.8547;-12.62;-0.1893;9.6802;-6.3391;-3.1065;-0.1668;-0.2575;-0.3873;32290;2022-04-09 18:35:06:207
-4.8547;-12.62;-0.1893;9.6802;-6.3391;-3.1065;-0.1668;-0.2575;-0.3873;32291;2022-04-09 18:35:06:208
-4.8547;-12.62;-0.1893;9.6802;-6.3391;-3.1065;-0.1668;-0.2575;-0.3873;32291;2022-04-09 18:35:06:208
-4.8547;-12.62;-0.1893;9.6802;-6.3391;-3.1065;-0.1668;-0.2575;-0.3873;32291;2022-04-09 18:35:06:208
-3.5339;-10.7931;0.553;0.0;0.0;0.0;-0.6235;-0.1833;0.6244;32383;2022-04-09 18:35:06:300
-1.2574;-7.617;1.2631;3.9334;-1.6854;-0.5592;-1.3726;-3.1901;-0.4884;32733;2022-04-09 18:35:06:650
-1.2574;-7.617;1.2631;3.9334;-1.6854;-0.5592;-1.3726;-3.1901;-0.4884;32733;2022-04-09 18:35:06:650
-1.2574;-7.617;1.2631;3.9334;-1.6854;-0.5592;-1.3726;-3.1901;-0.4884;32734;2022-04-09 18:35:06:651
-1.2574;-7.617;1.2631;3.9334;-1.6854;-0.5592;-1.3726;-3.1901;-0.4884;32734;2022-04-09 18:35:06:651
-1.2574;-7.617;1.2631;3.9334;-1.6854;-0.5592;-1.3726;-3.1901;-0.4884;32734;2022-04-09 18:35:06:651
-1.2574;-7.617;1.2631;3.9334;-1.6854;-0.5592;-1.3726;-3.1901;-0.4884;32734;2022-04-09 18:35:06:651
-1.2574;-7.617;1.2631;3.9334;-1.6854;-0.5592;-1.3726;-3.1901;-0.4884;32734;2022-04-09 18:35:06:651
-1.2574;-7.617;1.2631;3.9334;-1.6854;-0.5592;-1.3726;-3.1901;-0.4884;32735;2022-04-09 18:35:06:652
-1.2574;-7.617;1.2631;3.9334;-1.6854;-0.5592;-1.3726;-3.1901;-0.4884;32735;2022-04-09 18:35:06:652
-1.2574;-7.617;1.2631;3.9334;-1.6854;-0.5592;-1.3726;-3.1901;-0.4884;32735;2022-04-09 18:35:06:652
-1.2574;-7.617;1.2631;3.9334;-1.6854;-0.5592;-1.3726;-3.1901;-0.4884;32736;2022-04-09 18:35:06:653
-1.2574;-7.617;1.2631;3.9334;-1.6854;-0.5592;-1.3726;-3.1901;-0.4884;32737;2022-04-09 18:35:06:654
-1.2574;-7.617;1.2631;3.9334;-1.6854;-0.5592;-1.3726;-3.1901;-0.4884;32737;2022-04-09 18:35:06:654
-1.2574;-7.617;1.2631;3.9334;-1.6854;-0.5592;-1.3726;-3.1901;-0.4884;32738;2022-04-09 18:35:06:655
-1.2574;-7.617;1.2631;3.9334;-1.6854;-0.5592;-1.3726;-3.1901;-0.4884;32738;2022-04-09 18:35:06:655
-1.2574;-7.617;1.2631;3.9334;-1.6854;-0.5592;-1.3726;-3.1901;-0.4884;32738;2022-04-09 18:35:06:655
-1.2574;-7.617;1.2631;3.9334;-1.6854;-0.5592;-1.3726;-3.1901;-0.4884;32738;2022-04-09 18:35:06:655
-1.2574;-7.617;1.2631;3.9334;-1.6854;-0.5592;-1.3726;-3.1901;-0.4884;32738;2022-04-09 18:35:06:655
-1.2574;-7.617;1.2631;3.9334;-1.6854;-0.5592;-1.3726;-3.1901;-0.4884;32738;2022-04-09 18:35:06:655
-1.2574;-7.617;1.2631;3.9334;-1.6854;-0.5592;-1.3726;-3.1901;-0.4884;32739;2022-04-09 18:35:06:656
-1.2574;-7.617;1.2631;3.9334;-1.6854;-0.5592;-1.3726;-3.1901;-0.4884;32739;2022-04-09 18:35:06:656
-1.2574;-7.617;1.2631;3.9334;-1.6854;-0.5592;-1.3726;-3.1901;-0.4884;32739;2022-04-09 18:35:06:656
-1.2574;-7.617;1.2631;3.9334;-1.6854;-0.5592;-1.3726;-3.1901;-0.4884;32739;2022-04-09 18:35:06:656
-1.2574;-7.617;1.2631;3.9334;-1.6854;-0.5592;-1.3726;-3.1901;-0.4884;32739;2022-04-09 18:35:06:656
-1.2574;-7.617;1.2631;3.9334;-1.6854;-0.5592;-1.3726;-3.1901;-0.4884;32739;2022-04-09 18:35:06:656
-1.2574;-7.617;1.2631;3.9334;-1.6854;-0.5592;-1.3726;-3.1901;-0.4884;32739;2022-04-09 18:35:06:656
-1.2574;-7.617;1.2631;3.9334;-1.6854;-0.5592;-1.3726;-3.1901;-0.4884;32740;2022-04-09 18:35:06:657
-1.2574;-7.617;1.2631;3.9334;-1.6854;-0.5592;-1.3726;-3.1901;-0.4884;32740;2022-04-09 18:35:06:657
-1.2574;-7.617;1.2631;3.9334;-1.6854;-0.5592;-1.3726;-3.1901;-0.4884;32740;2022-04-09 18:35:06:657
-1.2574;-7.617;1.2631;3.9334;-1.6854;-0.5592;-1.3726;-3.1901;-0.4884;32740;2022-04-09 18:35:06:657
-1.2574;-7.617;1.2631;3.9334;-1.6854;-0.5592;-1.3726;-3.1901;-0.4884;32740;2022-04-09 18:35:06:657
-1.2574;-7.617;1.2631;3.9334;-1.6854;-0.5592;-1.3726;-3.1901;-0.4884;32740;2022-04-09 18:35:06:657
-1.2574;-7.617;1.2631;3.9334;-1.6854;-0.5592;-1.3726;-3.1901;-0.4884;32741;2022-04-09 18:35:06:658
-1.2574;-7.617;1.2631;3.9334;-1.6854;-0.5592;-1.3726;-3.1901;-0.4884;32741;2022-04-09 18:35:06:658
-1.2574;-7.617;1.2631;3.9334;-1.6854;-0.5592;-1.3726;-3.1901;-0.4884;32741;2022-04-09 18:35:06:658
-1.2574;-7.617;1.2631;3.9334;-1.6854;-0.5592;-1.3726;-3.1901;-0.4884;32741;2022-04-09 18:35:06:658
-1.2574;-7.617;1.2631;3.9334;-1.6854;-0.5592;-1.3726;-3.1901;-0.4884;32741;2022-04-09 18:35:06:658
-1.2574;-7.617;1.2631;3.9334;-1.6854;-0.5592;-1.3726;-3.1901;-0.4884;32741;2022-04-09 18:35:06:658
-1.2574;-7.617;1.2631;3.9334;-1.6854;-0.5592;-1.3726;-3.1901;-0.4884;32741;2022-04-09 18:35:06:658
-1.2574;-7.617;1.2631;3.9334;-1.6854;-0.5592;-1.3726;-3.1901;-0.4884;32742;2022-04-09 18:35:06:659
-1.2574;-7.617;1.2631;3.9334;-1.6854;-0.5592;-1.3726;-3.1901;-0.4884;32742;2022-04-09 18:35:06:659
-1.2574;-7.617;1.2631;3.9334;-1.6854;-0.5592;-1.3726;-3.1901;-0.4884;32742;2022-04-09 18:35:06:659
-1.2574;-7.617;1.2631;3.9334;-1.6854;-0.5592;-1.3726;-3.1901;-0.4884;32742;2022-04-09 18:35:06:659
-1.2574;-7.617;1.2631;3.9334;-1.6854;-0.5592;-1.3726;-3.1901;-0.4884;32742;2022-04-09 18:35:06:659
-1.2574;-7.617;1.2631;3.9334;-1.6854;-0.5592;-1.3726;-3.1901;-0.4884;32742;2022-04-09 18:35:06:659
-1.2574;-7.617;1.2631;3.9334;-1.6854;-0.5592;-1.3726;-3.1901;-0.4884;32743;2022-04-09 18:35:06:660
-1.2574;-7.617;1.2631;3.9334;-1.6854;-0.5592;-1.3726;-3.1901;-0.4884;32744;2022-04-09 18:35:06:661
-1.2574;-7.617;1.2631;3.9334;-1.6854;-0.5592;-1.3726;-3.1901;-0.4884;32744;2022-04-09 18:35:06:661
-1.2574;-7.617;1.2631;3.9334;-1.6854;-0.5592;-1.3726;-3.1901;-0.4884;32744;2022-04-09 18:35:06:661
-1.2574;-7.617;1.2631;3.9334;-1.6854;-0.5592;-1.3726;-3.1901;-0.4884;32744;2022-04-09 18:35:06:661
-1.2574;-7.617;1.2631;3.9334;-1.6854;-0.5592;-1.3726;-3.1901;-0.4884;32744;2022-04-09 18:35:06:661
-1.2574;-7.617;1.2631;3.9334;-1.6854;-0.5592;-1.3726;-3.1901;-0.4884;32744;2022-04-09 18:35:06:661
-1.2574;-7.617;1.2631;3.9334;-1.6854;-0.5592;-1.3726;-3.1901;-0.4884;32744;2022-04-09 18:35:06:661
-1.2574;-7.617;1.2631;3.9334;-1.6854;-0.5592;-1.3726;-3.1901;-0.4884;32744;2022-04-09 18:35:06:661
-1.2574;-7.617;1.2631;3.9334;-1.6854;-0.5592;-1.3726;-3.1901;-0.4884;32744;2022-04-09 18:35:06:661
-1.2574;-7.617;1.2631;3.9334;-1.6854;-0.5592;-1.3726;-3.1901;-0.4884;32744;2022-04-09 18:35:06:661
-1.2574;-7.617;1.2631;3.9334;-1.6854;-0.5592;-1.3726;-3.1901;-0.4884;32744;2022-04-09 18:35:06:661
-1.2574;-7.617;1.2631;3.9334;-1.6854;-0.5592;-1.3726;-3.1901;-0.4884;32744;2022-04-09 18:35:06:661
-1.2574;-7.617;1.2631;3.9334;-1.6854;-0.5592;-1.3726;-3.1901;-0.4884;32745;2022-04-09 18:35:06:662
-1.2574;-7.617;1.2631;3.9334;-1.6854;-0.5592;-1.3726;-3.1901;-0.4884;32745;2022-04-09 18:35:06:662
-1.2574;-7.617;1.2631;3.9334;-1.6854;-0.5592;-1.3726;-3.1901;-0.4884;32745;2022-04-09 18:35:06:662
-1.2574;-7.617;1.2631;3.9334;-1.6854;-0.5592;-1.3726;-3.1901;-0.4884;32745;2022-04-09 18:35:06:662
-1.2574;-7.617;1.2631;3.9334;-1.6854;-0.5592;-1.3726;-3.1901;-0.4884;32745;2022-04-09 18:35:06:662
-1.2574;-7.617;1.2631;3.9334;-1.6854;-0.5592;-1.3726;-3.1901;-0.4884;32745;2022-04-09 18:35:06:662
-1.2574;-7.617;1.2631;3.9334;-1.6854;-0.5592;-1.3726;-3.1901;-0.4884;32749;2022-04-09 18:35:06:666
-1.2574;-7.617;1.2631;3.9334;-1.6854;-0.5592;-1.3726;-3.1901;-0.4884;32749;2022-04-09 18:35:06:666
-1.2574;-7.617;1.2631;3.9334;-1.6854;-0.5592;-1.3726;-3.1901;-0.4884;32750;2022-04-09 18:35:06:667
-1.2574;-7.617;1.2631;3.9334;-1.6854;-0.5592;-1.3726;-3.1901;-0.4884;32750;2022-04-09 18:35:06:667
-1.2574;-7.617;1.2631;3.9334;-1.6854;-0.5592;-1.3726;-3.1901;-0.4884;32750;2022-04-09 18:35:06:667
-1.2574;-7.617;1.2631;3.9334;-1.6854;-0.5592;-1.3726;-3.1901;-0.4884;32750;2022-04-09 18:35:06:667
-1.2574;-7.617;1.2631;3.9334;-1.6854;-0.5592;-1.3726;-3.1901;-0.4884;32751;2022-04-09 18:35:06:668
-1.2574;-7.617;1.2631;3.9334;-1.6854;-0.5592;-1.3726;-3.1901;-0.4884;32751;2022-04-09 18:35:06:668
-1.2574;-7.617;1.2631;3.9334;-1.6854;-0.5592;-1.3726;-3.1901;-0.4884;32751;2022-04-09 18:35:06:668
-1.2574;-7.617;1.2631;3.9334;-1.6854;-0.5592;-1.3726;-3.1901;-0.4884;32751;2022-04-09 18:35:06:668
-1.2574;-7.617;1.2631;3.9334;-1.6854;-0.5592;-1.3726;-3.1901;-0.4884;32751;2022-04-09 18:35:06:668
-1.2574;-7.617;1.2631;3.9334;-1.6854;-0.5592;-1.3726;-3.1901;-0.4884;32752;2022-04-09 18:35:06:669
-1.2574;-7.617;1.2631;3.9334;-1.6854;-0.5592;-1.3726;-3.1901;-0.4884;32752;2022-04-09 18:35:06:669
-1.2574;-7.617;1.2631;3.9334;-1.6854;-0.5592;-1.3726;-3.1901;-0.4884;32752;2022-04-09 18:35:06:669
-1.2574;-7.617;1.2631;3.9334;-1.6854;-0.5592;-1.3726;-3.1901;-0.4884;32752;2022-04-09 18:35:06:669
-1.2574;-7.617;1.2631;3.9334;-1.6854;-0.5592;-1.3726;-3.1901;-0.4884;32752;2022-04-09 18:35:06:669
-1.2574;-7.617;1.2631;3.9334;-1.6854;-0.5592;-1.3726;-3.1901;-0.4884;32753;2022-04-09 18:35:06:670
-1.2574;-7.617;1.2631;3.9334;-1.6854;-0.5592;-1.3726;-3.1901;-0.4884;32753;2022-04-09 18:35:06:670
-1.2574;-7.617;1.2631;3.9334;-1.6854;-0.5592;-1.3726;-3.1901;-0.4884;32753;2022-04-09 18:35:06:670
-1.2574;-7.617;1.2631;3.9334;-1.6854;-0.5592;-1.3726;-3.1901;-0.4884;32753;2022-04-09 18:35:06:670
-1.2574;-7.617;1.2631;3.9334;-1.6854;-0.5592;-1.3726;-3.1901;-0.4884;32753;2022-04-09 18:35:06:670
-1.2574;-7.617;1.2631;3.9334;-1.6854;-0.5592;-1.3726;-3.1901;-0.4884;32753;2022-04-09 18:35:06:670
-1.2574;-7.617;1.2631;3.9334;-1.6854;-0.5592;-1.3726;-3.1901;-0.4884;32754;2022-04-09 18:35:06:671
-1.2574;-7.617;1.2631;3.9334;-1.6854;-0.5592;-1.3726;-3.1901;-0.4884;32754;2022-04-09 18:35:06:671
-1.2574;-7.617;1.2631;3.9334;-1.6854;-0.5592;-1.3726;-3.1901;-0.4884;32754;2022-04-09 18:35:06:671
-1.2574;-7.617;1.2631;3.9334;-1.6854;-0.5592;-1.3726;-3.1901;-0.4884;32754;2022-04-09 18:35:06:671
-1.2574;-7.617;1.2631;3.9334;-1.6854;-0.5592;-1.3726;-3.1901;-0.4884;32754;2022-04-09 18:35:06:671
-1.2574;-7.617;1.2631;3.9334;-1.6854;-0.5592;-1.3726;-3.1901;-0.4884;32754;2022-04-09 18:35:06:671
-1.2574;-7.617;1.2631;3.9334;-1.6854;-0.5592;-1.3726;-3.1901;-0.4884;32754;2022-04-09 18:35:06:671
-1.2574;-7.617;1.2631;3.9334;-1.6854;-0.5592;-1.3726;-3.1901;-0.4884;32754;2022-04-09 18:35:06:671
-1.2574;-7.617;1.2631;3.9334;-1.6854;-0.5592;-1.3726;-3.1901;-0.4884;32755;2022-04-09 18:35:06:672
-1.2574;-7.617;1.2631;3.9334;-1.6854;-0.5592;-1.3726;-3.1901;-0.4884;32755;2022-04-09 18:35:06:672
-1.2574;-7.617;1.2631;3.9334;-1.6854;-0.5592;-1.3726;-3.1901;-0.4884;32755;2022-04-09 18:35:06:672
-1.2574;-7.617;1.2631;3.9334;-1.6854;-0.5592;-1.3726;-3.1901;-0.4884;32755;2022-04-09 18:35:06:672
-1.2574;-7.617;1.2631;3.9334;-1.6854;-0.5592;-1.3726;-3.1901;-0.4884;32755;2022-04-09 18:35:06:672
-1.2574;-7.617;1.2631;3.9334;-1.6854;-0.5592;-1.3726;-3.1901;-0.4884;32755;2022-04-09 18:35:06:672
-1.2574;-7.617;1.2631;3.9334;-1.6854;-0.5592;-1.3726;-3.1901;-0.4884;32755;2022-04-09 18:35:06:672
-1.2574;-7.617;1.2631;3.9334;-1.6854;-0.5592;-1.3726;-3.1901;-0.4884;32756;2022-04-09 18:35:06:673
-1.2574;-7.617;1.2631;3.9334;-1.6854;-0.5592;-1.3726;-3.1901;-0.4884;32756;2022-04-09 18:35:06:673
-1.2574;-7.617;1.2631;3.9334;-1.6854;-0.5592;-1.3726;-3.1901;-0.4884;32756;2022-04-09 18:35:06:673
-1.2574;-7.617;1.2631;3.9334;-1.6854;-0.5592;-1.3726;-3.1901;-0.4884;32756;2022-04-09 18:35:06:673
-1.2574;-7.617;1.2631;3.9334;-1.6854;-0.5592;-1.3726;-3.1901;-0.4884;32756;2022-04-09 18:35:06:673
-1.2574;-7.617;1.2631;3.9334;-1.6854;-0.5592;-1.3726;-3.1901;-0.4884;32756;2022-04-09 18:35:06:673
-1.2574;-7.617;1.2631;3.9334;-1.6854;-0.5592;-1.3726;-3.1901;-0.4884;32756;2022-04-09 18:35:06:673
-1.2574;-7.617;1.2631;3.9334;-1.6854;-0.5592;-1.3726;-3.1901;-0.4884;32757;2022-04-09 18:35:06:674
-1.2574;-7.617;1.2631;3.9334;-1.6854;-0.5592;-1.3726;-3.1901;-0.4884;32757;2022-04-09 18:35:06:674
-1.2574;-7.617;1.2631;3.9334;-1.6854;-0.5592;-1.3726;-3.1901;-0.4884;32757;2022-04-09 18:35:06:674
-1.2574;-7.617;1.2631;3.9334;-1.6854;-0.5592;-1.3726;-3.1901;-0.4884;32757;2022-04-09 18:35:06:674
-1.2574;-7.617;1.2631;3.9334;-1.6854;-0.5592;-1.3726;-3.1901;-0.4884;32757;2022-04-09 18:35:06:674
-1.2574;-7.617;1.2631;3.9334;-1.6854;-0.5592;-1.3726;-3.1901;-0.4884;32757;2022-04-09 18:35:06:674
-1.2574;-7.617;1.2631;3.9334;-1.6854;-0.5592;-1.3726;-3.1901;-0.4884;32757;2022-04-09 18:35:06:674
-1.2574;-7.617;1.2631;3.9334;-1.6854;-0.5592;-1.3726;-3.1901;-0.4884;32757;2022-04-09 18:35:06:674
-1.2574;-7.617;1.2631;3.9334;-1.6854;-0.5592;-1.3726;-3.1901;-0.4884;32758;2022-04-09 18:35:06:675
-1.2574;-7.617;1.2631;3.9334;-1.6854;-0.5592;-1.3726;-3.1901;-0.4884;32758;2022-04-09 18:35:06:675
-1.2574;-7.617;1.2631;3.9334;-1.6854;-0.5592;-1.3726;-3.1901;-0.4884;32758;2022-04-09 18:35:06:675
-1.2574;-7.617;1.2631;3.9334;-1.6854;-0.5592;-1.3726;-3.1901;-0.4884;32758;2022-04-09 18:35:06:675
-1.2574;-7.617;1.2631;3.9334;-1.6854;-0.5592;-1.3726;-3.1901;-0.4884;32758;2022-04-09 18:35:06:675
-1.2574;-7.617;1.2631;3.9334;-1.6854;-0.5592;-1.3726;-3.1901;-0.4884;32758;2022-04-09 18:35:06:675
-1.2574;-7.617;1.2631;3.9334;-1.6854;-0.5592;-1.3726;-3.1901;-0.4884;32758;2022-04-09 18:35:06:675
-1.2574;-7.617;1.2631;3.9334;-1.6854;-0.5592;-1.3726;-3.1901;-0.4884;32759;2022-04-09 18:35:06:676
-1.2574;-7.617;1.2631;3.9334;-1.6854;-0.5592;-1.3726;-3.1901;-0.4884;32759;2022-04-09 18:35:06:676
-1.2574;-7.617;1.2631;3.9334;-1.6854;-0.5592;-1.3726;-3.1901;-0.4884;32759;2022-04-09 18:35:06:676
-1.2574;-7.617;1.2631;3.9334;-1.6854;-0.5592;-1.3726;-3.1901;-0.4884;32759;2022-04-09 18:35:06:676
-1.2574;-7.617;1.2631;3.9334;-1.6854;-0.5592;-1.3726;-3.1901;-0.4884;32759;2022-04-09 18:35:06:676
-1.2574;-7.617;1.2631;3.9334;-1.6854;-0.5592;-1.3726;-3.1901;-0.4884;32759;2022-04-09 18:35:06:676
-1.2574;-7.617;1.2631;3.9334;-1.6854;-0.5592;-1.3726;-3.1901;-0.4884;32759;2022-04-09 18:35:06:676
-1.2574;-7.617;1.2631;3.9334;-1.6854;-0.5592;-1.3726;-3.1901;-0.4884;32760;2022-04-09 18:35:06:677
-1.2574;-7.617;1.2631;3.9334;-1.6854;-0.5592;-1.3726;-3.1901;-0.4884;32760;2022-04-09 18:35:06:677
-1.2574;-7.617;1.2631;3.9334;-1.6854;-0.5592;-1.3726;-3.1901;-0.4884;32760;2022-04-09 18:35:06:677
-1.2574;-7.617;1.2631;3.9334;-1.6854;-0.5592;-1.3726;-3.1901;-0.4884;32760;2022-04-09 18:35:06:677
-1.2574;-7.617;1.2631;3.9334;-1.6854;-0.5592;-1.3726;-3.1901;-0.4884;32760;2022-04-09 18:35:06:677
-1.2574;-7.617;1.2631;3.9334;-1.6854;-0.5592;-1.3726;-3.1901;-0.4884;32760;2022-04-09 18:35:06:677
-1.2574;-7.617;1.2631;3.9334;-1.6854;-0.5592;-1.3726;-3.1901;-0.4884;32760;2022-04-09 18:35:06:677
-1.2574;-7.617;1.2631;3.9334;-1.6854;-0.5592;-1.3726;-3.1901;-0.4884;32761;2022-04-09 18:35:06:678
-1.2574;-7.617;1.2631;3.9334;-1.6854;-0.5592;-1.3726;-3.1901;-0.4884;32761;2022-04-09 18:35:06:678
-1.2574;-7.617;1.2631;3.9334;-1.6854;-0.5592;-1.3726;-3.1901;-0.4884;32761;2022-04-09 18:35:06:678
-1.2574;-7.617;1.2631;3.9334;-1.6854;-0.5592;-1.3726;-3.1901;-0.4884;32761;2022-04-09 18:35:06:678
-1.2574;-7.617;1.2631;3.9334;-1.6854;-0.5592;-1.3726;-3.1901;-0.4884;32761;2022-04-09 18:35:06:678
-1.2574;-7.617;1.2631;3.9334;-1.6854;-0.5592;-1.3726;-3.1901;-0.4884;32761;2022-04-09 18:35:06:678
-1.2574;-7.617;1.2631;3.9334;-1.6854;-0.5592;-1.3726;-3.1901;-0.4884;32761;2022-04-09 18:35:06:678
-1.2574;-7.617;1.2631;3.9334;-1.6854;-0.5592;-1.3726;-3.1901;-0.4884;32761;2022-04-09 18:35:06:678
-1.2574;-7.617;1.2631;3.9334;-1.6854;-0.5592;-1.3726;-3.1901;-0.4884;32762;2022-04-09 18:35:06:679
-1.2574;-7.617;1.2631;3.9334;-1.6854;-0.5592;-1.3726;-3.1901;-0.4884;32762;2022-04-09 18:35:06:679
-1.2574;-7.617;1.2631;3.9334;-1.6854;-0.5592;-1.3726;-3.1901;-0.4884;32763;2022-04-09 18:35:06:680
-1.2574;-7.617;1.2631;3.9334;-1.6854;-0.5592;-1.3726;-3.1901;-0.4884;32763;2022-04-09 18:35:06:680
-1.2574;-7.617;1.2631;3.9334;-1.6854;-0.5592;-1.3726;-3.1901;-0.4884;32763;2022-04-09 18:35:06:680
-1.2574;-7.617;1.2631;3.9334;-1.6854;-0.5592;-1.3726;-3.1901;-0.4884;32763;2022-04-09 18:35:06:680
-1.2574;-7.617;1.2631;3.9334;-1.6854;-0.5592;-1.3726;-3.1901;-0.4884;32763;2022-04-09 18:35:06:680
-1.2574;-7.617;1.2631;3.9334;-1.6854;-0.5592;-1.3726;-3.1901;-0.4884;32763;2022-04-09 18:35:06:680
-1.2574;-7.617;1.2631;3.9334;-1.6854;-0.5592;-1.3726;-3.1901;-0.4884;32763;2022-04-09 18:35:06:680
-1.2574;-7.617;1.2631;3.9334;-1.6854;-0.5592;-1.3726;-3.1901;-0.4884;32763;2022-04-09 18:35:06:680
-1.2574;-7.617;1.2631;3.9334;-1.6854;-0.5592;-1.3726;-3.1901;-0.4884;32764;2022-04-09 18:35:06:681
-1.2574;-7.617;1.2631;3.9334;-1.6854;-0.5592;-1.3726;-3.1901;-0.4884;32764;2022-04-09 18:35:06:681
-1.2574;-7.617;1.2631;3.9334;-1.6854;-0.5592;-1.3726;-3.1901;-0.4884;32764;2022-04-09 18:35:06:681
-1.2574;-7.617;1.2631;3.9334;-1.6854;-0.5592;-1.3726;-3.1901;-0.4884;32764;2022-04-09 18:35:06:681
-1.2574;-7.617;1.2631;3.9334;-1.6854;-0.5592;-1.3726;-3.1901;-0.4884;32764;2022-04-09 18:35:06:681
-1.2574;-7.617;1.2631;3.9334;-1.6854;-0.5592;-1.3726;-3.1901;-0.4884;32764;2022-04-09 18:35:06:681
-1.2574;-7.617;1.2631;3.9334;-1.6854;-0.5592;-1.3726;-3.1901;-0.4884;32764;2022-04-09 18:35:06:681
-1.2574;-7.617;1.2631;3.9334;-1.6854;-0.5592;-1.3726;-3.1901;-0.4884;32765;2022-04-09 18:35:06:682
-1.2574;-7.617;1.2631;3.9334;-1.6854;-0.5592;-1.3726;-3.1901;-0.4884;32765;2022-04-09 18:35:06:682
-1.2574;-7.617;1.2631;3.9334;-1.6854;-0.5592;-1.3726;-3.1901;-0.4884;32772;2022-04-09 18:35:06:689
-1.2574;-7.617;1.2631;3.9334;-1.6854;-0.5592;-1.3726;-3.1901;-0.4884;32773;2022-04-09 18:35:06:690
-1.2574;-7.617;1.2631;3.9334;-1.6854;-0.5592;-1.3726;-3.1901;-0.4884;32773;2022-04-09 18:35:06:690
-1.2574;-7.617;1.2631;3.9334;-1.6854;-0.5592;-1.3726;-3.1901;-0.4884;32773;2022-04-09 18:35:06:690
-1.2574;-7.617;1.2631;3.9334;-1.6854;-0.5592;-1.3726;-3.1901;-0.4884;32773;2022-04-09 18:35:06:690
-1.2574;-7.617;1.2631;3.9334;-1.6854;-0.5592;-1.3726;-3.1901;-0.4884;32773;2022-04-09 18:35:06:690
-1.2574;-7.617;1.2631;3.9334;-1.6854;-0.5592;-1.3726;-3.1901;-0.4884;32773;2022-04-09 18:35:06:690
-1.2574;-7.617;1.2631;3.9334;-1.6854;-0.5592;-1.3726;-3.1901;-0.4884;32774;2022-04-09 18:35:06:691
-1.2574;-7.617;1.2631;3.9334;-1.6854;-0.5592;-1.3726;-3.1901;-0.4884;32774;2022-04-09 18:35:06:691
-1.2574;-7.617;1.2631;3.9334;-1.6854;-0.5592;-1.3726;-3.1901;-0.4884;32774;2022-04-09 18:35:06:691
-1.2574;-7.617;1.2631;3.9334;-1.6854;-0.5592;-1.3726;-3.1901;-0.4884;32774;2022-04-09 18:35:06:691
-1.2574;-7.617;1.2631;3.9334;-1.6854;-0.5592;-1.3726;-3.1901;-0.4884;32774;2022-04-09 18:35:06:691
-1.2574;-7.617;1.2631;3.9334;-1.6854;-0.5592;-1.3726;-3.1901;-0.4884;32774;2022-04-09 18:35:06:691
-1.2574;-7.617;1.2631;3.9334;-1.6854;-0.5592;-1.3726;-3.1901;-0.4884;32775;2022-04-09 18:35:06:692
-1.2574;-7.617;1.2631;3.9334;-1.6854;-0.5592;-1.3726;-3.1901;-0.4884;32775;2022-04-09 18:35:06:692
-1.2574;-7.617;1.2631;3.9334;-1.6854;-0.5592;-1.3726;-3.1901;-0.4884;32775;2022-04-09 18:35:06:692
-1.2574;-7.617;1.2631;3.9334;-1.6854;-0.5592;-1.3726;-3.1901;-0.4884;32775;2022-04-09 18:35:06:692
-1.2574;-7.617;1.2631;3.9334;-1.6854;-0.5592;-1.3726;-3.1901;-0.4884;32775;2022-04-09 18:35:06:692
-1.2574;-7.617;1.2631;3.9334;-1.6854;-0.5592;-1.3726;-3.1901;-0.4884;32775;2022-04-09 18:35:06:692
-1.2574;-7.617;1.2631;3.9334;-1.6854;-0.5592;-1.3726;-3.1901;-0.4884;32775;2022-04-09 18:35:06:692
-1.2574;-7.617;1.2631;3.9334;-1.6854;-0.5592;-1.3726;-3.1901;-0.4884;32776;2022-04-09 18:35:06:693
-1.2574;-7.617;1.2631;3.9334;-1.6854;-0.5592;-1.3726;-3.1901;-0.4884;32776;2022-04-09 18:35:06:693
-1.2574;-7.617;1.2631;3.9334;-1.6854;-0.5592;-1.3726;-3.1901;-0.4884;32776;2022-04-09 18:35:06:693
-1.2574;-7.617;1.2631;3.9334;-1.6854;-0.5592;-1.3726;-3.1901;-0.4884;32776;2022-04-09 18:35:06:693
-1.2574;-7.617;1.2631;3.9334;-1.6854;-0.5592;-1.3726;-3.1901;-0.4884;32776;2022-04-09 18:35:06:693
-1.2574;-7.617;1.2631;3.9334;-1.6854;-0.5592;-1.3726;-3.1901;-0.4884;32776;2022-04-09 18:35:06:693
-1.2574;-7.617;1.2631;3.9334;-1.6854;-0.5592;-1.3726;-3.1901;-0.4884;32776;2022-04-09 18:35:06:693
-1.2574;-7.617;1.2631;3.9334;-1.6854;-0.5592;-1.3726;-3.1901;-0.4884;32777;2022-04-09 18:35:06:694
-1.2574;-7.617;1.2631;3.9334;-1.6854;-0.5592;-1.3726;-3.1901;-0.4884;32777;2022-04-09 18:35:06:694
-1.2574;-7.617;1.2631;3.9334;-1.6854;-0.5592;-1.3726;-3.1901;-0.4884;32777;2022-04-09 18:35:06:694
-1.2574;-7.617;1.2631;3.9334;-1.6854;-0.5592;-1.3726;-3.1901;-0.4884;32777;2022-04-09 18:35:06:694
-1.2574;-7.617;1.2631;3.9334;-1.6854;-0.5592;-1.3726;-3.1901;-0.4884;32777;2022-04-09 18:35:06:694
-1.2574;-7.617;1.2631;3.9334;-1.6854;-0.5592;-1.3726;-3.1901;-0.4884;32777;2022-04-09 18:35:06:694
-1.2574;-7.617;1.2631;3.9334;-1.6854;-0.5592;-1.3726;-3.1901;-0.4884;32777;2022-04-09 18:35:06:694
-1.2574;-7.617;1.2631;3.9334;-1.6854;-0.5592;-1.3726;-3.1901;-0.4884;32777;2022-04-09 18:35:06:694
-1.2574;-7.617;1.2631;3.9334;-1.6854;-0.5592;-1.3726;-3.1901;-0.4884;32778;2022-04-09 18:35:06:695
-1.2574;-7.617;1.2631;3.9334;-1.6854;-0.5592;-1.3726;-3.1901;-0.4884;32778;2022-04-09 18:35:06:695
-1.2574;-7.617;1.2631;3.9334;-1.6854;-0.5592;-1.3726;-3.1901;-0.4884;32778;2022-04-09 18:35:06:695
-1.2574;-7.617;1.2631;3.9334;-1.6854;-0.5592;-1.3726;-3.1901;-0.4884;32778;2022-04-09 18:35:06:695
-1.2574;-7.617;1.2631;3.9334;-1.6854;-0.5592;-1.3726;-3.1901;-0.4884;32778;2022-04-09 18:35:06:695
-1.2574;-7.617;1.2631;3.9334;-1.6854;-0.5592;-1.3726;-3.1901;-0.4884;32778;2022-04-09 18:35:06:695
-1.2574;-7.617;1.2631;3.9334;-1.6854;-0.5592;-1.3726;-3.1901;-0.4884;32778;2022-04-09 18:35:06:695
-1.2574;-7.617;1.2631;3.9334;-1.6854;-0.5592;-1.3726;-3.1901;-0.4884;32779;2022-04-09 18:35:06:696
-1.2574;-7.617;1.2631;3.9334;-1.6854;-0.5592;-1.3726;-3.1901;-0.4884;32779;2022-04-09 18:35:06:696
-1.2574;-7.617;1.2631;3.9334;-1.6854;-0.5592;-1.3726;-3.1901;-0.4884;32779;2022-04-09 18:35:06:696
-1.2574;-7.617;1.2631;3.9334;-1.6854;-0.5592;-1.3726;-3.1901;-0.4884;32779;2022-04-09 18:35:06:696
-1.2574;-7.617;1.2631;3.9334;-1.6854;-0.5592;-1.3726;-3.1901;-0.4884;32779;2022-04-09 18:35:06:696
-1.2574;-7.617;1.2631;3.9334;-1.6854;-0.5592;-1.3726;-3.1901;-0.4884;32779;2022-04-09 18:35:06:696
-1.2574;-7.617;1.2631;3.9334;-1.6854;-0.5592;-1.3726;-3.1901;-0.4884;32779;2022-04-09 18:35:06:696
-1.2574;-7.617;1.2631;3.9334;-1.6854;-0.5592;-1.3726;-3.1901;-0.4884;32780;2022-04-09 18:35:06:697
-1.2574;-7.617;1.2631;3.9334;-1.6854;-0.5592;-1.3726;-3.1901;-0.4884;32780;2022-04-09 18:35:06:697
-1.2574;-7.617;1.2631;3.9334;-1.6854;-0.5592;-1.3726;-3.1901;-0.4884;32780;2022-04-09 18:35:06:697
-1.2574;-7.617;1.2631;3.9334;-1.6854;-0.5592;-1.3726;-3.1901;-0.4884;32780;2022-04-09 18:35:06:697
-1.2574;-7.617;1.2631;3.9334;-1.6854;-0.5592;-1.3726;-3.1901;-0.4884;32780;2022-04-09 18:35:06:697
-1.2574;-7.617;1.2631;3.9334;-1.6854;-0.5592;-1.3726;-3.1901;-0.4884;32780;2022-04-09 18:35:06:697
-1.2574;-7.617;1.2631;3.9334;-1.6854;-0.5592;-1.3726;-3.1901;-0.4884;32780;2022-04-09 18:35:06:697
-1.2574;-7.617;1.2631;3.9334;-1.6854;-0.5592;-1.3726;-3.1901;-0.4884;32781;2022-04-09 18:35:06:698
-1.2574;-7.617;1.2631;3.9334;-1.6854;-0.5592;-1.3726;-3.1901;-0.4884;32781;2022-04-09 18:35:06:698
-1.2574;-7.617;1.2631;3.9334;-1.6854;-0.5592;-1.3726;-3.1901;-0.4884;32781;2022-04-09 18:35:06:698
-1.2574;-7.617;1.2631;3.9334;-1.6854;-0.5592;-1.3726;-3.1901;-0.4884;32781;2022-04-09 18:35:06:698
-1.2574;-7.617;1.2631;3.9334;-1.6854;-0.5592;-1.3726;-3.1901;-0.4884;32781;2022-04-09 18:35:06:698
-1.2574;-7.617;1.2631;3.9334;-1.6854;-0.5592;-1.3726;-3.1901;-0.4884;32781;2022-04-09 18:35:06:698
4.0014;8.2953;8.1165;3.9334;-1.6854;-0.5592;-1.3726;-3.1901;-0.4884;32827;2022-04-09 18:35:06:744
4.0014;8.2953;8.1165;3.205;3.274;0.0166;0.1098;-1.264;-2.2265;32927;2022-04-09 18:35:06:844
1.1219;4.2823;8.5789;-0.6408;-1.102;3.0363;0.0037;-2.5112;-1.9558;33027;2022-04-09 18:35:06:944
2.059;4.663;9.6377;0.2383;-0.5013;2.6284;-0.5569;-1.5671;-1.8628;33127;2022-04-09 18:35:07:044
2.6456;4.6717;9.5384;0.6115;-0.389;2.206;-0.0626;-0.9693;-1.5731;33228;2022-04-09 18:35:07:145
2.6456;4.6717;9.5384;0.6115;-0.389;2.206;-0.0626;-0.9693;-1.5731;33327;2022-04-09 18:35:07:244
2.6456;4.6717;9.5384;0.6115;-0.389;2.206;-0.0626;-0.9693;-1.5731;33427;2022-04-09 18:35:07:344
2.4604;4.9813;8.4849;1.2218;-0.3231;1.8026;-0.1321;-0.3661;-1.5558;33527;2022-04-09 18:35:07:444
0.9852;5.0091;8.7452;0.3534;-0.1489;0.2916;-0.1321;-0.3661;-1.5558;33628;2022-04-09 18:35:07:545
-2.4613;5.208;8.9022;-0.1969;0.7352;0.6591;0.3589;0.4421;-0.3685;33727;2022-04-09 18:35:07:644
-2.4185;6.4379;5.6456;-1.8952;-0.4645;1.1132;0.704;0.0837;-0.1836;33827;2022-04-09 18:35:07:744
-2.9085;5.6342;8.0815;-1.5184;0.9502;-2.1486;-0.439;0.2385;-0.243;33927;2022-04-09 18:35:07:844
-1.5144;6.7397;6.7603;-0.9125;0.9459;-0.7479;-0.1225;0.0941;0.1836;34027;2022-04-09 18:35:07:944
-0.8638;6.3156;8.0632;-0.0194;0.8651;-0.1215;0.0266;-0.1715;-0.0072;34127;2022-04-09 18:35:08:044
-0.6263;6.9655;7.4716;-0.1392;0.7065;0.2342;0.0408;-0.3268;0.0524;34227;2022-04-09 18:35:08:144
-0.8734;7.2404;8.4042;-0.0561;1.3777;-0.4136;-0.1742;-0.2341;0.0828;34328;2022-04-09 18:35:08:245
0.0377;3.8121;8.2475;-0.3865;-0.4141;2.6052;0.549;0.0502;0.1466;34427;2022-04-09 18:35:08:344
0.7116;4.9448;6.6685;0.8312;-1.8979;0.3358;0.3427;0.3712;-0.2708;34527;2022-04-09 18:35:08:444
-0.1125;4.6756;8.1909;0.6196;-1.5248;2.648;0.3123;0.067;0.1987;34629;2022-04-09 18:35:08:546
0.3248;5.3198;7.0436;0.4867;-0.5241;-0.0525;-0.1917;-0.1158;0.0999;34727;2022-04-09 18:35:08:644
0.4211;5.5747;8.7568;1.0874;0.0666;0.6023;0.0547;0.0831;-0.0548;34827;2022-04-09 18:35:08:744
0.3413;5.8723;9.0144;1.0272;0.3124;0.553;0.1109;0.0964;-0.0768;34929;2022-04-09 18:35:08:846
-0.3936;5.653;9.2279;1.3783;0.9653;0.2233;-0.0466;0.3757;-0.0896;35027;2022-04-09 18:35:08:944
-1.2951;5.0946;8.0136;0.5954;0.1215;1.1443;0.1759;0.2346;-0.1023;35127;2022-04-09 18:35:09:044
-1.4456;4.4363;7.6953;-0.3735;-0.4377;-0.0675;9.0E-4;-0.0018;0.2043;35227;2022-04-09 18:35:09:144
-0.9784;4.3687;8.6913;-1.1545;-0.518;-0.6387;-0.575;-0.1735;0.3392;35327;2022-04-09 18:35:09:244
-0.2195;5.6725;7.2664;0.4525;0.2073;-0.2475;-0.2579;-0.2277;0.0521;35427;2022-04-09 18:35:09:344
-0.4107;5.1718;8.0438;-0.102;1.1127;-1.3699;-0.5166;0.1031;0.1735;35528;2022-04-09 18:35:09:445
-0.3269;5.3288;8.2059;-0.254;0.623;-0.591;-0.0441;0.0041;-0.0979;35627;2022-04-09 18:35:09:544
0.3063;5.2872;9.548;-0.2944;1.0081;0.5291;-0.1379;-0.1552;0.0605;35727;2022-04-09 18:35:09:644
0.3482;2.9659;11.3201;0.54;1.0482;0.7049;-0.5478;0.3366;0.348;35827;2022-04-09 18:35:09:744
0.0416;3.2318;9.2731;0.6833;-1.0838;0.4776;0.1658;0.1293;-0.1672;35927;2022-04-09 18:35:09:844
-0.236;3.6488;8.6154;0.1353;-1.3797;0.5795;0.2387;-0.0417;-0.062;36027;2022-04-09 18:35:09:944
0.341;4.8802;7.5248;0.4522;-0.2278;-1.1062;0.1465;-0.1048;-0.8462;36127;2022-04-09 18:35:10:044
-0.9553;6.2163;7.7856;1.2844;0.2821;-1.0632;-0.6458;0.6121;-0.5805;36227;2022-04-09 18:35:10:144
-0.0212;5.8908;8.5726;0.1865;0.2487;-0.5787;0.1277;-0.5204;0.2514;36327;2022-04-09 18:35:10:244
0.2031;6.0233;10.3451;0.1415;1.2476;-0.0459;-0.1093;-0.6605;-0.1174;36427;2022-04-09 18:35:10:344
-0.5925;4.0086;10.2568;0.1792;1.4705;1.6311;-0.1994;-0.3566;-0.0884;36528;2022-04-09 18:35:10:445
0.1831;3.8602;6.9643;-0.6632;-0.8815;-0.8321;-0.3004;-0.1061;0.6167;36628;2022-04-09 18:35:10:545
0.4074;3.5847;8.8881;-0.3413;-0.4268;-1.8292;-0.2676;-0.2573;0.1823;36727;2022-04-09 18:35:10:644
-0.7391;4.8141;7.9816;-0.9573;-0.1176;0.2911;0.011;-0.1038;0.124;36828;2022-04-09 18:35:10:745
0.0144;4.8021;9.1926;-1.5001;0.668;-0.849;-0.0183;0.0194;0.1168;36927;2022-04-09 18:35:10:844
1.6205;4.6044;11.2696;-0.2704;0.399;2.0711;0.0874;-0.1171;0.0559;37027;2022-04-09 18:35:10:944
1.8829;2.6136;11.7129;0.8154;0.335;2.4092;0.1145;0.1975;-0.0415;37127;2022-04-09 18:35:11:044
1.9253;3.0727;9.539;0.7514;-0.6503;-1.4442;-0.2723;-0.2889;-0.3001;37227;2022-04-09 18:35:11:144
0.9757;3.9574;7.1055;0.8973;-1.5116;0.8522;0.2989;-0.0539;-0.1397;37327;2022-04-09 18:35:11:244
2.0174;5.5519;8.5334;-0.5639;-0.0631;-1.7356;0.2801;-0.4183;-0.049;37427;2022-04-09 18:35:11:344
2.3028;6.5417;8.4912;0.7055;0.2522;0.3595;0.7208;-0.009;-0.3095;37527;2022-04-09 18:35:11:444
1.8802;5.4622;9.979;0.0925;0.2885;-0.2108;-0.1422;-0.3092;-0.0513;37627;2022-04-09 18:35:11:544
1.1225;4.6397;9.5498;0.811;0.1912;1.6971;-0.2741;0.66;-0.0672;37727;2022-04-09 18:35:11:644
0.6811;4.1764;8.8134;0.759;0.4199;-0.2235;-0.5553;0.3767;-0.1064;37827;2022-04-09 18:35:11:744
0.3628;4.5661;7.5272;0.0072;-0.5915;0.1787;-0.0348;0.104;-0.0049;37927;2022-04-09 18:35:11:844
0.2641;4.9481;7.5972;-0.2901;-0.272;-1.0489;0.1292;0.0421;0.0276;38027;2022-04-09 18:35:11:944
0.4672;4.8646;8.2887;-0.4986;0.6344;-1.2101;-0.5017;0.0542;-0.1894;38127;2022-04-09 18:35:12:044
1.2296;4.3543;9.958;-0.2074;0.4269;-0.4643;-0.1935;-0.3256;-0.3543;38227;2022-04-09 18:35:12:144
1.3555;2.5983;9.1187;0.9635;-1.5569;3.4379;0.5238;-0.1312;-0.115;38327;2022-04-09 18:35:12:244
1.6834;2.6345;8.5854;0.6347;-1.7617;0.2734;-0.0628;-0.2917;-0.2497;38427;2022-04-09 18:35:12:344
1.8;5.1739;7.8419;0.3757;-1.1663;-0.2823;0.2729;-0.2631;-0.2014;38527;2022-04-09 18:35:12:444
1.8182;5.3504;7.8646;1.0563;0.5476;-0.8253;0.1735;-0.0852;-0.3283;38629;2022-04-09 18:35:12:546
-0.0144;4.5921;8.4972;2.4488;1.6333;-1.192;-0.2297;0.5159;-0.2307;38727;2022-04-09 18:35:12:644
0.7735;5.5484;8.6288;-0.65;-0.4714;0.0809;0.3744;-0.4273;-0.0681;38827;2022-04-09 18:35:12:744
0.6778;4.6463;9.7457;0.8303;0.8811;1.0913;-0.0224;0.1958;-0.0837;38934;2022-04-09 18:35:12:851
0.064;4.5473;8.5412;0.3107;-0.2142;1.1413;-0.0484;0.0809;0.0808;39027;2022-04-09 18:35:12:944
0.7068;3.8737;10.3499;-0.1061;-0.1907;-0.1333;-0.2017;0.3224;-0.0144;39127;2022-04-09 18:35:13:044
0.4256;5.1254;6.8815;0.2523;-0.7262;-0.8715;0.1287;0.1261;0.0292;39227;2022-04-09 18:35:13:144
-0.4241;5.3928;7.413;0.4862;0.1954;-1.6587;0.1049;0.0536;-0.0844;39327;2022-04-09 18:35:13:244
0.0754;5.4688;9.5181;-0.5803;0.6874;-0.529;0.0409;-0.1521;-0.1329;39427;2022-04-09 18:35:13:344
2.0608;5.4305;9.431;-0.2184;0.4747;1.0147;-0.0515;-0.6849;-0.3483;39527;2022-04-09 18:35:13:444
1.4019;4.3917;8.222;0.6571;-1.3427;1.3127;-0.1526;-1.0088;-0.6008;39627;2022-04-09 18:35:13:544
0.8602;3.8602;8.7529;1.1958;-0.115;-0.5715;-0.6162;0.3987;-0.6319;39728;2022-04-09 18:35:13:645
0.5641;5.1933;7.3307;0.5631;-0.0597;-0.6044;0.0756;0.111;-0.4983;39827;2022-04-09 18:35:13:744
0.0245;4.9047;7.7333;0.8679;0.7084;-1.4354;-0.0078;0.0341;-0.4894;39927;2022-04-09 18:35:13:844
0.6117;5.4042;9.0861;-0.4941;0.7191;-0.7042;-0.1608;-0.6225;0.015;40027;2022-04-09 18:35:13:944
0.9535;4.3427;11.6438;0.164;1.0845;0.2498;-0.2242;-0.6328;-0.1141;40127;2022-04-09 18:35:14:044
1.401;2.7882;8.7156;-0.2612;-0.2518;2.9733;0.6425;-1.8984;1.58;40227;2022-04-09 18:35:14:144
2.7129;3.2548;2.7724;-2.9593;-2.2617;1.4536;1.2415;-2.3408;1.1718;40327;2022-04-09 18:35:14:244
2.7129;3.2548;2.7724;-2.9593;-2.2617;1.4536;1.2415;-2.3408;1.1718;40427;2022-04-09 18:35:14:344
2.7129;3.2548;2.7724;-5.8532;-0.2556;-0.338;1.2415;-2.3408;1.1718;40527;2022-04-09 18:35:14:444
3.877;-3.5243;-0.0658;-5.6597;-5.368;-0.3805;-0.1761;-3.6836;0.6869;40627;2022-04-09 18:35:14:544
31.3986;-12.801;8.9955;0.5076;-7.2051;2.3629;0.8746;-0.9048;5.016;40727;2022-04-09 18:35:14:644
11.3468;2.1203;-5.1087;12.4621;6.8697;1.3749;-0.6009;2.0269;-1.4896;40827;2022-04-09 18:35:14:744
7.6253;-4.2781;-5.0192;3.4434;8.3029;-6.2885;-3.0096;2.7073;-1.5305;40927;2022-04-09 18:35:14:844
1.7252;-4.8036;-0.7986;-0.3058;-3.7602;2.6122;0.6377;-1.1172;-0.8541;41027;2022-04-09 18:35:14:944
9.7968;-2.5914;-2.0288;-7.6704;-1.734;0.5689;-0.2581;-0.8853;-0.4384;41127;2022-04-09 18:35:15:044
9.9509;-8.2071;-3.0443;0.8309;1.1249;0.3074;-1.2052;-1.1026;1.3084;41227;2022-04-09 18:35:15:144
8.1739;-9.0329;-1.9349;0.5431;-2.7174;-1.3707;-0.3624;-1.3336;1.7595;41327;2022-04-09 18:35:15:244
4.7892;-4.3953;-0.1549;0.5102;-3.1991;1.0904;0.1306;-0.9448;1.6203;41428;2022-04-09 18:35:15:345
3.0257;-5.8286;1.4171;-2.5374;-1.2474;5.9811;0.7767;0.6081;2.7876;41527;2022-04-09 18:35:15:444
1.4426;-3.7834;0.3096;-0.4175;3.3379;3.0392;1.9416;0.3958;4.4618;41629;2022-04-09 18:35:15:546
1.1749;-16.8045;2.773;0.8153;-10.2002;1.3843;-1.6699;4.0311;-3.6515;41727;2022-04-09 18:35:15:644
1.8422;-4.8332;-0.2456;-3.0695;-7.6771;2.2563;-1.3297;5.9008;0.9551;41827;2022-04-09 18:35:15:744
4.8039;-10.3104;3.1334;1.3789;-1.7603;1.9334;-1.3798;1.1571;0.3451;41927;2022-04-09 18:35:15:844
3.4472;-10.9388;3.9849;0.5097;-1.2402;3.6724;-1.6177;4.8158;-0.1652;42027;2022-04-09 18:35:15:944
2.9186;-9.0918;3.0637;-3.6321;-0.8641;-6.2836;-2.3371;1.475;0.7837;42128;2022-04-09 18:35:16:045
6.5073;-7.5302;2.653;-0.2942;0.4394;3.3271;-1.1954;3.4714;0.6156;42228;2022-04-09 18:35:16:145
4.6911;-7.0801;-4.2359;2.9862;1.8726;3.0295;-1.4181;3.3647;-0.2772;42327;2022-04-09 18:35:16:244
5.1655;-7.4399;-1.3956;0.0822;2.8132;-0.5426;-0.4445;2.2945;0.0553;42428;2022-04-09 18:35:16:345
4.1339;-7.9178;-0.2004;5.8395;-1.8849;-6.1171;-0.4169;1.12;-0.3355;42527;2022-04-09 18:35:16:444
1.3657;-8.8304;0.5815;0.3948;1.3421;-0.8014;-0.1081;1.7997;0.3537;42628;2022-04-09 18:35:16:545
5.5421;-10.5769;1.0298;-1.8395;0.6028;-0.074;-0.3587;1.1823;0.7023;42727;2022-04-09 18:35:16:644
3.9188;-7.9917;0.1771;0.0;0.0;0.0;0.3147;0.8224;0.2544;42828;2022-04-09 18:35:16:745
4.2939;-7.8918;0.3697;-0.5957;0.3802;-0.3545;0.6102;-0.4725;0.3934;42927;2022-04-09 18:35:16:844
4.4785;-8.4523;0.3257;0.3053;-0.2291;-0.0122;0.1519;0.9005;0.0321;43028;2022-04-09 18:35:16:945
4.2526;-9.7137;0.6775;0.1684;-0.0851;-0.7485;-0.6053;1.6722;0.0324;43127;2022-04-09 18:35:17:044
9.7229;-9.9012;-5.0509;0.9656;-0.5013;-0.6241;-0.0476;-0.0118;0.037;43227;2022-04-09 18:35:17:144
7.0908;-10.8251;1.2616;0.0;0.0;0.0;-2.9223;-2.1418;-1.906;43327;2022-04-09 18:35:17:244
3.5133;-7.3552;0.2318;-2.1937;-1.6423;1.4682;1.337;-0.0759;-1.0917;43427;2022-04-09 18:35:17:344
4.2598;-6.8761;-0.3257;-2.5151;2.4427;-1.865;0.3036;-1.8819;-1.4778;43527;2022-04-09 18:35:17:444
-0.6135;-6.184;2.1511;-1.6195;1.9649;-1.9804;1.1001;-1.1756;-0.3302;43629;2022-04-09 18:35:17:546
13.2559;-8.4903;-6.6778;-1.2381;-0.6016;-2.4533;0.3737;-1.3912;0.0354;43727;2022-04-09 18:35:17:644
13.2559;-8.4903;-6.6778;-1.2381;-0.6016;-2.4533;0.3737;-1.3912;0.0354;43887;2022-04-09 18:35:17:804
4.5434;-6.181;2.2361;0.0;0.0;0.0;1.3481;-1.7156;-0.3595;43927;2022-04-09 18:35:17:844
4.7883;-11.0683;2.3632;-2.1127;7.4299;3.5167;1.6074;-0.3407;1.2451;44027;2022-04-09 18:35:17:944
3.641;-8.881;-0.0694;0.6026;2.1957;-0.3647;0.2158;1.0346;0.5557;44128;2022-04-09 18:35:18:045
4.3167;-8.3976;1.7722;1.016;1.3209;-1.7453;0.0866;0.7321;0.4969;44228;2022-04-09 18:35:18:145
4.651;-8.0853;0.2566;1.3654;1.0935;0.3825;-0.2816;1.2084;0.6299;44327;2022-04-09 18:35:18:244
6.4696;-8.7697;1.1997;2.5569;1.6848;-1.3742;-0.0553;0.6999;0.5214;44428;2022-04-09 18:35:18:345
7.4426;-10.6265;-2.2666;4.9435;-0.038;-3.1015;-1.6091;-2.0065;-1.5357;44527;2022-04-09 18:35:18:444
4.4979;-10.0621;4.1471;1.9865;-1.6782;-0.7619;-1.7889;0.2272;-1.7947;44627;2022-04-09 18:35:18:544
4.6487;-9.2707;-1.6442;-1.6093;-1.6063;5.6227;-0.1994;-0.8775;-1.5375;44729;2022-04-09 18:35:18:646
1.4225;-6.941;-0.2743;-3.4152;1.2274;2.1973;0.6948;-1.1116;-0.3763;44827;2022-04-09 18:35:18:744
10.3247;-7.9077;-6.0838;-2.2805;1.2171;0.7494;0.9572;-1.092;-0.0693;44928;2022-04-09 18:35:18:845
7.4728;-8.4162;-4.1647;4.7817;0.245;-4.117;0.4882;-2.1276;-0.2879;45029;2022-04-09 18:35:18:946
5.872;-9.3024;-3.2402;1.6363;-0.3438;-2.2233;0.7741;-0.7156;-0.5291;45127;2022-04-09 18:35:19:044
0.2318;-8.9276;6.0963;-2.5819;-3.0389;3.1195;1.0699;-3.1605;0.4905;45227;2022-04-09 18:35:19:144
1.7782;-10.8389;-0.1169;-4.9035;-0.2014;5.9427;1.5949;5.5589;-0.6692;45328;2022-04-09 18:35:19:245
6.3942;-7.7886;0.7143;-1.0087;-1.2905;-0.8646;-0.936;1.5832;1.5755;45427;2022-04-09 18:35:19:344
7.9104;-7.3253;1.9187;3.4509;1.8966;0.1286;0.7964;-1.539;1.2078;45528;2022-04-09 18:35:19:445
5.0204;-8.7105;-1.3983;3.8856;1.8876;-1.9352;0.1518;2.1432;-0.0647;45627;2022-04-09 18:35:19:544
6.9323;-9.463;0.4519;2.3206;0.78;-3.2258;-0.9247;0.6675;0.0031;45728;2022-04-09 18:35:19:645
7.7973;-10.1524;-3.9302;3.6758;-0.0829;-1.2443;-0.3166;0.6124;-0.7639;46090;2022-04-09 18:35:20:007
7.7973;-10.1524;-3.9302;3.6758;-0.0829;-1.2443;-0.3166;0.6124;-0.7639;46090;2022-04-09 18:35:20:007
7.7973;-10.1524;-3.9302;3.6758;-0.0829;-1.2443;-0.3166;0.6124;-0.7639;46090;2022-04-09 18:35:20:007
7.7973;-10.1524;-3.9302;3.6758;-0.0829;-1.2443;-0.3166;0.6124;-0.7639;46091;2022-04-09 18:35:20:008
7.7973;-10.1524;-3.9302;3.6758;-0.0829;-1.2443;-0.3166;0.6124;-0.7639;46091;2022-04-09 18:35:20:008
7.7973;-10.1524;-3.9302;3.6758;-0.0829;-1.2443;-0.3166;0.6124;-0.7639;46091;2022-04-09 18:35:20:008
7.7973;-10.1524;-3.9302;3.6758;-0.0829;-1.2443;-0.3166;0.6124;-0.7639;46091;2022-04-09 18:35:20:008
7.7973;-10.1524;-3.9302;3.6758;-0.0829;-1.2443;-0.3166;0.6124;-0.7639;46091;2022-04-09 18:35:20:008
5.2062;-11.2187;-0.0479;0.0;0.0;0.0;0.6959;-0.173;0.9954;46105;2022-04-09 18:35:20:022
5.2062;-11.2187;-0.0479;0.0;0.0;0.0;0.6959;-0.173;0.9954;46105;2022-04-09 18:35:20:022
5.2062;-11.2187;-0.0479;0.0;0.0;0.0;0.6959;-0.173;0.9954;46106;2022-04-09 18:35:20:023
5.2062;-11.2187;-0.0479;0.0;0.0;0.0;0.6959;-0.173;0.9954;46106;2022-04-09 18:35:20:023
5.2062;-11.2187;-0.0479;0.0;0.0;0.0;0.6959;-0.173;0.9954;46106;2022-04-09 18:35:20:023
5.2062;-11.2187;-0.0479;0.0;0.0;0.0;0.6959;-0.173;0.9954;46106;2022-04-09 18:35:20:023
5.2062;-11.2187;-0.0479;0.0;0.0;0.0;0.6959;-0.173;0.9954;46106;2022-04-09 18:35:20:023
5.2062;-11.2187;-0.0479;0.0;0.0;0.0;0.6959;-0.173;0.9954;46106;2022-04-09 18:35:20:023
5.2062;-11.2187;-0.0479;0.0;0.0;0.0;0.6959;-0.173;0.9954;46106;2022-04-09 18:35:20:023
5.2062;-11.2187;-0.0479;0.0;0.0;0.0;0.6959;-0.173;0.9954;46107;2022-04-09 18:35:20:024
5.2062;-11.2187;-0.0479;0.0;0.0;0.0;0.6959;-0.173;0.9954;46107;2022-04-09 18:35:20:024
5.2062;-11.2187;-0.0479;0.0;0.0;0.0;0.6959;-0.173;0.9954;46107;2022-04-09 18:35:20:024
5.2062;-11.2187;-0.0479;0.0;0.0;0.0;0.6959;-0.173;0.9954;46107;2022-04-09 18:35:20:024
5.2062;-11.2187;-0.0479;0.0;0.0;0.0;0.6959;-0.173;0.9954;46107;2022-04-09 18:35:20:024
5.2062;-11.2187;-0.0479;0.0;0.0;0.0;0.6959;-0.173;0.9954;46107;2022-04-09 18:35:20:024
5.2062;-11.2187;-0.0479;0.0;0.0;0.0;0.6959;-0.173;0.9954;46107;2022-04-09 18:35:20:024
5.2062;-11.2187;-0.0479;0.0;0.0;0.0;0.6959;-0.173;0.9954;46107;2022-04-09 18:35:20:024
5.2062;-11.2187;-0.0479;0.0;0.0;0.0;0.6959;-0.173;0.9954;46108;2022-04-09 18:35:20:025
5.2062;-11.2187;-0.0479;0.0;0.0;0.0;0.6959;-0.173;0.9954;46108;2022-04-09 18:35:20:025
1.6825;-8.316;-1.8203;0.0;0.0;0.0;0.9796;0.2419;1.3918;46164;2022-04-09 18:35:20:081
1.6825;-8.316;-1.8203;0.0;0.0;0.0;0.9796;0.2419;1.3918;46515;2022-04-09 18:35:20:432
1.6825;-8.316;-1.8203;0.0;0.0;0.0;0.9796;0.2419;1.3918;46516;2022-04-09 18:35:20:433
1.6825;-8.316;-1.8203;0.0;0.0;0.0;0.9796;0.2419;1.3918;46516;2022-04-09 18:35:20:433
1.6825;-8.316;-1.8203;0.0;0.0;0.0;0.9796;0.2419;1.3918;46517;2022-04-09 18:35:20:434
1.6825;-8.316;-1.8203;0.0;0.0;0.0;0.9796;0.2419;1.3918;46517;2022-04-09 18:35:20:434
1.6825;-8.316;-1.8203;0.0;0.0;0.0;0.9796;0.2419;1.3918;46517;2022-04-09 18:35:20:434
1.6825;-8.316;-1.8203;0.0;0.0;0.0;0.9796;0.2419;1.3918;46517;2022-04-09 18:35:20:434
1.6825;-8.316;-1.8203;0.0;0.0;0.0;0.9796;0.2419;1.3918;46518;2022-04-09 18:35:20:435
1.6825;-8.316;-1.8203;0.0;0.0;0.0;0.9796;0.2419;1.3918;46518;2022-04-09 18:35:20:435
1.6825;-8.316;-1.8203;0.0;0.0;0.0;0.9796;0.2419;1.3918;46518;2022-04-09 18:35:20:435
1.6825;-8.316;-1.8203;0.0;0.0;0.0;0.9796;0.2419;1.3918;46518;2022-04-09 18:35:20:435
1.6825;-8.316;-1.8203;0.0;0.0;0.0;0.9796;0.2419;1.3918;46518;2022-04-09 18:35:20:435
1.6825;-8.316;-1.8203;0.0;0.0;0.0;0.9796;0.2419;1.3918;46518;2022-04-09 18:35:20:435
1.6825;-8.316;-1.8203;0.0;0.0;0.0;0.9796;0.2419;1.3918;46519;2022-04-09 18:35:20:436
1.6825;-8.316;-1.8203;0.0;0.0;0.0;0.9796;0.2419;1.3918;46519;2022-04-09 18:35:20:436
1.6825;-8.316;-1.8203;0.0;0.0;0.0;0.9796;0.2419;1.3918;46519;2022-04-09 18:35:20:436
1.6825;-8.316;-1.8203;0.0;0.0;0.0;0.9796;0.2419;1.3918;46519;2022-04-09 18:35:20:436
1.6825;-8.316;-1.8203;0.0;0.0;0.0;0.9796;0.2419;1.3918;46519;2022-04-09 18:35:20:436
1.6825;-8.316;-1.8203;0.0;0.0;0.0;0.9796;0.2419;1.3918;46519;2022-04-09 18:35:20:436
1.6825;-8.316;-1.8203;0.0;0.0;0.0;0.9796;0.2419;1.3918;46519;2022-04-09 18:35:20:436
1.6825;-8.316;-1.8203;0.0;0.0;0.0;0.9796;0.2419;1.3918;46520;2022-04-09 18:35:20:437
1.6825;-8.316;-1.8203;0.0;0.0;0.0;0.9796;0.2419;1.3918;46520;2022-04-09 18:35:20:437
1.6825;-8.316;-1.8203;0.0;0.0;0.0;0.9796;0.2419;1.3918;46520;2022-04-09 18:35:20:437
1.6825;-8.316;-1.8203;0.0;0.0;0.0;0.9796;0.2419;1.3918;46520;2022-04-09 18:35:20:437
1.6825;-8.316;-1.8203;0.0;0.0;0.0;0.9796;0.2419;1.3918;46520;2022-04-09 18:35:20:437
1.6825;-8.316;-1.8203;0.0;0.0;0.0;0.9796;0.2419;1.3918;46520;2022-04-09 18:35:20:437
1.6825;-8.316;-1.8203;0.0;0.0;0.0;0.9796;0.2419;1.3918;46521;2022-04-09 18:35:20:438
17.1524;-8.2935;-4.4686;0.0;0.0;0.0;0.2336;-1.2076;0.4384;46585;2022-04-09 18:35:20:502
7.9077;-13.7402;-3.4681;4.0164;-1.2426;-0.5066;0.3474;0.409;-0.5324;46935;2022-04-09 18:35:20:852
7.9077;-13.7402;-3.4681;4.0164;-1.2426;-0.5066;0.3474;0.409;-0.5324;46936;2022-04-09 18:35:20:853
7.9077;-13.7402;-3.4681;4.0164;-1.2426;-0.5066;0.3474;0.409;-0.5324;46936;2022-04-09 18:35:20:853
7.9077;-13.7402;-3.4681;4.0164;-1.2426;-0.5066;0.3474;0.409;-0.5324;46937;2022-04-09 18:35:20:854
7.9077;-13.7402;-3.4681;4.0164;-1.2426;-0.5066;0.3474;0.409;-0.5324;46937;2022-04-09 18:35:20:854
7.9077;-13.7402;-3.4681;4.0164;-1.2426;-0.5066;0.3474;0.409;-0.5324;46937;2022-04-09 18:35:20:854
7.9077;-13.7402;-3.4681;4.0164;-1.2426;-0.5066;0.3474;0.409;-0.5324;46937;2022-04-09 18:35:20:854
7.9077;-13.7402;-3.4681;4.0164;-1.2426;-0.5066;0.3474;0.409;-0.5324;46938;2022-04-09 18:35:20:855
1.0137;-6.9236;0.454;0.0;0.0;0.0;-0.0275;1.224;0.8822;46981;2022-04-09 18:35:20:898
1.5138;-5.2241;1.5553;0.1596;3.4515;-2.0691;-0.1901;0.0044;-0.5473;47081;2022-04-09 18:35:20:998
-1.8392;-5.6701;0.7534;0.0273;3.3846;0.6423;0.5554;0.4838;0.8676;47183;2022-04-09 18:35:21:100
11.624;-6.7146;-3.3574;11.6891;-1.9294;-5.1196;0.1787;1.2861;-0.4102;47281;2022-04-09 18:35:21:198
4.7611;-15.3658;-1.925;7.0364;1.3307;-2.7283;-0.2285;-0.0142;-0.2869;47381;2022-04-09 18:35:21:298
1.6214;-12.1687;1.6035;-4.0948;3.5122;2.0181;-0.6651;0.1249;0.8388;47481;2022-04-09 18:35:21:398
1.9427;-7.5855;1.4378;-1.1119;-2.8256;2.4571;0.0145;-1.1808;0.9378;47581;2022-04-09 18:35:21:498
7.1225;-8.3701;1.8018;2.6746;1.1007;0.641;1.6012;-1.5545;1.1505;47681;2022-04-09 18:35:21:598
6.5127;-9.3987;0.3837;5.9345;0.5984;-1.0117;3.1645;2.3221;0.5821;47781;2022-04-09 18:35:21:698
8.2011;-9.3314;1.4348;4.5987;0.6723;-5.6147;-0.4314;-1.0491;-0.1817;47881;2022-04-09 18:35:21:798
7.1737;-10.7581;-3.7211;5.349;-0.2466;0.5958;-0.6961;-0.5296;-1.2715;47982;2022-04-09 18:35:21:899
4.6017;-13.7599;2.2804;2.516;-2.2335;-2.5246;-2.9426;-0.4079;-2.7201;48081;2022-04-09 18:35:21:998
3.4286;-7.4297;-3.2387;-4.1767;-4.1222;5.2236;0.0278;-1.3113;-1.1533;48181;2022-04-09 18:35:22:098
-2.7081;-5.9333;0.5809;-4.7861;1.1305;2.9188;0.7449;0.2155;0.6959;48281;2022-04-09 18:35:22:198
13.8108;-10.477;-5.6204;-6.9696;2.4469;1.2233;0.7492;-0.3457;1.733;48381;2022-04-09 18:35:22:298
12.4256;-8.7724;-2.8167;8.9227;-2.0817;-5.1431;0.1811;1.0413;-0.3033;48481;2022-04-09 18:35:22:398
-0.0592;-7.2846;0.8994;-2.4474;-3.7429;-0.5915;-0.1245;0.595;0.2506;48581;2022-04-09 18:35:22:498
2.155;-11.0088;1.4402;-4.8688;1.2629;1.8373;-0.6544;-0.513;0.5667;48681;2022-04-09 18:35:22:598
4.1509;-7.5117;1.2173;-0.3615;1.1893;1.5676;0.9905;-0.7486;1.3811;48781;2022-04-09 18:35:22:698
6.2118;-8.4625;1.3597;1.6586;1.9402;0.8078;1.2802;-0.3938;1.0105;48880;2022-04-09 18:35:22:797
6.1119;-9.5142;-2.869;4.574;0.5043;-1.6213;0.7746;2.6981;0.4039;48981;2022-04-09 18:35:22:898
7.555;-9.545;0.2641;4.1672;-0.0853;-4.5752;-0.9497;-0.5259;-0.0866;49081;2022-04-09 18:35:22:998
6.3263;-10.9086;-3.7193;4.7707;-0.1973;-0.8969;-0.7457;-0.2431;-1.0276;49181;2022-04-09 18:35:23:098
2.5205;-12.4053;3.7143;-1.8339;-1.0906;2.9812;-1.556;0.584;-1.7221;49281;2022-04-09 18:35:23:198
1.6313;-6.4935;2.1547;-1.8919;2.7665;-1.9026;0.3303;-0.5692;-0.8141;49380;2022-04-09 18:35:23:297
-1.812;-6.5139;0.9598;-2.6142;2.7395;1.591;0.9393;0.2943;0.4713;49481;2022-04-09 18:35:23:398
11.8738;-10.4291;-5.8705;-4.2974;2.5476;0.0531;0.6886;-0.4299;1.4352;49581;2022-04-09 18:35:23:498
5.1176;-16.5817;0.0574;6.4686;3.3697;-2.4644;0.1599;0.6388;-0.5246;49681;2022-04-09 18:35:23:598
0.9667;-5.8202;-0.842;-0.0475;-7.1167;0.0399;-0.0191;-0.1645;0.0275;49781;2022-04-09 18:35:23:698
2.1855;-8.9504;1.5482;-2.1625;-0.6643;1.8078;-0.3102;-0.2908;0.6822;49881;2022-04-09 18:35:23:798
3.743;-7.9289;1.1838;-0.5036;0.8471;1.6345;0.4242;0.0884;1.2747;49981;2022-04-09 18:35:23:898
6.7199;-8.0375;1.3313;4.3001;1.0702;-0.443;1.7482;0.35;0.6425;50081;2022-04-09 18:35:23:998
5.5615;-9.0544;-0.7083;4.9075;1.3449;-1.4454;1.614;2.4025;0.2787;50181;2022-04-09 18:35:24:098
9.4205;-10.2269;-2.2283;3.9632;1.1273;-3.8724;-1.2576;0.5026;-0.8097;50280;2022-04-09 18:35:24:197
9.4205;-10.2269;-2.2283;3.9632;1.1273;-3.8724;-1.2576;0.5026;-0.8097;50380;2022-04-09 18:35:24:297
2.8155;-11.9898;2.4036;4.1214;-1.7423;-0.8975;-1.4013;-0.6588;-0.3659;50481;2022-04-09 18:35:24:398
3.189;-7.4985;-1.389;-4.4611;-5.7075;6.6059;-1.0282;-1.0331;-1.6476;50581;2022-04-09 18:35:24:498
-1.2111;-6.7591;-0.1334;-7.8109;0.986;2.7041;0.4441;0.1683;0.6576;50680;2022-04-09 18:35:24:597
16.1112;-5.016;-3.3188;-1.9862;-0.6283;0.3191;0.7561;-0.2402;1.7234;50780;2022-04-09 18:35:24:697
2.0399;-7.5736;1.5126;3.9206;-4.8765;-1.7628;-0.305;-0.9111;-0.4633;50881;2022-04-09 18:35:24:798
0.8387;-9.3245;0.8183;-2.7964;0.6226;3.8932;0.1032;0.5203;0.4991;50981;2022-04-09 18:35:24:898
2.7395;-8.6776;0.7463;-1.7763;-1.0743;3.6113;0.3967;-0.1228;0.9407;51080;2022-04-09 18:35:24:997
4.0992;-8.3856;1.1713;-0.4602;0.2894;2.5589;0.439;-0.1649;1.0276;51181;2022-04-09 18:35:25:098
6.3093;-8.6842;1.1288;1.5038;0.8677;2.2283;1.1951;-0.3563;0.9926;51280;2022-04-09 18:35:25:197
6.2423;-6.935;-2.6474;4.7959;1.4481;-0.0776;0.0681;1.5781;0.2446;51381;2022-04-09 18:35:25:298
5.7957;-11.0169;0.594;4.3417;-1.2238;1.202;-0.3228;0.8871;-1.2104;51481;2022-04-09 18:35:25:398
2.0186;-12.2207;-6.294;0.9915;-2.6349;2.112;-3.102;1.0174;-1.9265;51580;2022-04-09 18:35:25:497
0.384;-14.6504;2.4407;-3.9351;-4.8102;-3.7485;-2.7917;1.5551;-1.9387;51681;2022-04-09 18:35:25:598
4.2206;-5.3438;1.0385;-4.1415;-1.6883;2.145;-0.7009;0.0793;-0.1933;51780;2022-04-09 18:35:25:697
0.632;-5.8714;0.5318;-1.7708;1.935;3.3692;-0.1526;1.3956;0.5064;51881;2022-04-09 18:35:25:798
13.0167;-8.353;-2.537;-0.3894;-1.4203;0.6799;0.8036;2.6196;1.034;51981;2022-04-09 18:35:25:898
10.8583;-12.2486;-3.4834;7.809;-0.1431;-2.4631;-0.1946;1.6119;-0.2248;52081;2022-04-09 18:35:25:998
0.5477;-9.1352;1.2817;-4.1102;1.3132;0.9282;-0.7229;0.0443;0.1098;52181;2022-04-09 18:35:26:098
1.1835;-12.0628;2.4371;-4.969;-1.2366;2.7617;-1.4648;1.461;0.0087;52282;2022-04-09 18:35:26:199
1.864;-9.5785;1.2918;-4.0562;-3.9705;3.9431;-1.0389;1.2058;0.5785;52381;2022-04-09 18:35:26:298
5.0883;-9.4394;1.9621;-0.5954;-0.5751;3.7867;-0.1481;0.7486;1.2793;52481;2022-04-09 18:35:26:398
7.1103;-5.5412;0.5112;2.5783;0.6569;1.473;0.5346;0.8172;0.7446;52581;2022-04-09 18:35:26:498
6.6912;-5.8771;0.0954;3.1465;3.3236;0.3986;-0.182;2.8218;-0.9441;52681;2022-04-09 18:35:26:598
6.1008;-17.9641;-3.9111;1.6524;2.318;-1.0369;-3.3508;9.594;-2.4648;52780;2022-04-09 18:35:26:697
3.9054;-6.2973;4.6119;-4.6086;-3.6305;-7.0185;-2.1412;1.528;0.4474;52881;2022-04-09 18:35:26:798
3.6392;-8.3378;-3.9574;-0.8211;2.3096;4.7226;-1.4517;2.9647;0.3355;52981;2022-04-09 18:35:26:898
4.9813;-7.6558;-0.9915;0.1985;0.6308;2.7831;-1.1255;2.5431;0.6762;53081;2022-04-09 18:35:26:998
4.9968;-6.8839;-1.9513;1.1561;1.2936;0.0368;-0.5521;1.2703;0.4768;53180;2022-04-09 18:35:27:097
9.877;-11.1538;-5.269;1.6802;1.3925;-1.9831;0.1045;1.7918;-0.2463;53281;2022-04-09 18:35:27:198
1.8682;-8.5059;-0.9784;6.077;-2.0969;-5.3588;0.2734;-0.3001;0.3115;53381;2022-04-09 18:35:27:298
1.812;-8.1123;0.725;-0.4137;-2.7853;-2.0625;0.0822;-3.4649;2.2841;53480;2022-04-09 18:35:27:397
7.3669;-2.3435;0.3494;1.0991;1.6554;1.4786;-0.5786;-2.0283;-0.0012;53581;2022-04-09 18:35:27:498
-0.35;-12.2632;-2.2244;2.4525;-3.2122;1.0457;1.3002;2.5824;-1.3191;53680;2022-04-09 18:35:27:597
-0.7041;-9.6401;-1.2742;-3.3703;-2.9704;-3.2009;1.5146;-0.4829;1.0832;53781;2022-04-09 18:35:27:698
2.4356;-9.6921;-0.0422;-3.1153;-0.2225;-2.5513;0.5209;0.0695;0.8587;53881;2022-04-09 18:35:27:798
4.995;-11.8705;-4.6863;4.5144;-3.1463;-3.1552;2.7841;2.5688;0.7669;53980;2022-04-09 18:35:27:897
7.4157;-12.0021;-10.2646;3.7549;-2.1273;-5.7519;-3.4221;0.3176;0.0192;54081;2022-04-09 18:35:27:998
0.5824;-17.0031;6.2378;-2.8842;-8.9625;7.4735;0.1338;2.6431;-0.7735;54181;2022-04-09 18:35:28:098
5.3955;-10.4991;-0.8456;-4.7024;-8.7725;8.7467;0.8973;0.2981;-1.7727;54281;2022-04-09 18:35:28:198
-1.7635;-7.6516;-1.4273;-5.8214;-9.5832;-1.386;-0.2456;2.9353;-1.33;54381;2022-04-09 18:35:28:298
3.8183;-0.9784;-1.8188;-8.6023;-0.4016;-2.6286;1.4202;3.1863;1.8519;54481;2022-04-09 18:35:28:398
21.9003;-7.2781;3.7032;10.4996;-5.5204;-5.9261;-0.2984;1.988;3.4446;54581;2022-04-09 18:35:28:498
11.5735;-10.9478;11.5558;19.9456;1.7597;0.0235;0.8164;2.5901;-4.9564;54681;2022-04-09 18:35:28:598
-1.124;-12.955;8.0501;0.3772;-9.0017;8.8355;5.7884;4.303;-7.3639;54781;2022-04-09 18:35:28:698
